70BCSV 	
// AQ6370D OPTICAL SPECTRUM ANALYZER //                 
30
"CTRWL",1549.500000
"SPAN",   8.000000
"START WL",1545.500000
"STOP WL",1553.500000
"WLFREQ", 0
"REFL",-10.0
"LSCL",10.0
"RESLN",0.020
"AVG",   1
"SMPLAUTO",      1
"SMPL",       2001
"SMPLINTVL",0.0040
"MID"
"MEAS"
"LSUNT",0
"NMSKH","OFF"
"RESCOR",0
"SMOOTH",0
"FIBERTYPE",0
"MEASWL",0
"SWPSPD",1
"NEBWCAL0",    0
"NEBWCAL1",    0
"NEBWCALWL",   0
"RESPARM", 9838
"FREQPARM", 9838




"[TRACE DATA]"
1545.5000, -71.824
1545.5040, -71.441
1545.5080, -72.041
1545.5120, -72.644
1545.5160, -73.723
1545.5200, -70.744
1545.5240, -71.591
1545.5280, -71.144
1545.5320, -71.157
1545.5360, -71.786
1545.5400, -71.928
1545.5440, -72.630
1545.5480, -73.003
1545.5520, -72.018
1545.5560, -72.175
1545.5600, -72.424
1545.5640, -73.307
1545.5680, -71.318
1545.5720, -71.198
1545.5760, -71.375
1545.5800, -70.811
1545.5840, -72.125
1545.5880, -70.899
1545.5920, -71.743
1545.5960, -72.461
1545.6000, -71.494
1545.6040, -72.538
1545.6080, -70.918
1545.6120, -73.748
1545.6160, -72.173
1545.6200, -72.053
1545.6240, -71.686
1545.6280, -72.312
1545.6320, -72.893
1545.6360, -71.552
1545.6400, -72.022
1545.6440, -71.502
1545.6480, -72.158
1545.6520, -71.273
1545.6560, -71.462
1545.6600, -72.616
1545.6640, -71.653
1545.6680, -71.778
1545.6720, -72.362
1545.6760, -71.928
1545.6800, -71.358
1545.6840, -72.533
1545.6880, -73.308
1545.6920, -72.050
1545.6960, -71.633
1545.7000, -72.625
1545.7040, -71.977
1545.7080, -72.125
1545.7120, -72.371
1545.7160, -71.957
1545.7200, -72.151
1545.7240, -71.840
1545.7280, -71.205
1545.7320, -72.519
1545.7360, -71.445
1545.7400, -71.628
1545.7440, -72.499
1545.7480, -72.448
1545.7520, -71.735
1545.7560, -72.910
1545.7600, -73.113
1545.7640, -72.193
1545.7680, -72.006
1545.7720, -71.346
1545.7760, -71.292
1545.7800, -71.180
1545.7840, -71.264
1545.7880, -71.840
1545.7920, -71.805
1545.7960, -71.617
1545.8000, -71.688
1545.8040, -73.729
1545.8080, -71.538
1545.8120, -72.505
1545.8160, -72.275
1545.8200, -72.339
1545.8240, -71.907
1545.8280, -72.277
1545.8320, -72.614
1545.8360, -72.140
1545.8400, -72.224
1545.8440, -73.394
1545.8480, -70.861
1545.8520, -71.729
1545.8560, -72.813
1545.8600, -71.366
1545.8640, -72.968
1545.8680, -71.321
1545.8720, -71.317
1545.8760, -73.770
1545.8800, -72.300
1545.8840, -71.789
1545.8880, -71.641
1545.8920, -71.975
1545.8960, -73.895
1545.9000, -72.428
1545.9040, -71.725
1545.9080, -72.478
1545.9120, -73.031
1545.9160, -71.329
1545.9200, -71.340
1545.9240, -72.836
1545.9280, -71.658
1545.9320, -71.700
1545.9360, -72.372
1545.9400, -71.973
1545.9440, -72.024
1545.9480, -71.602
1545.9520, -73.490
1545.9560, -71.810
1545.9600, -72.580
1545.9640, -72.177
1545.9680, -71.412
1545.9720, -72.800
1545.9760, -71.917
1545.9800, -73.175
1545.9840, -72.081
1545.9880, -71.082
1545.9920, -71.828
1545.9960, -71.907
1546.0000, -72.964
1546.0040, -72.983
1546.0080, -71.825
1546.0120, -71.257
1546.0160, -71.761
1546.0200, -70.856
1546.0240, -74.002
1546.0280, -72.108
1546.0320, -72.306
1546.0360, -72.456
1546.0400, -71.648
1546.0440, -72.780
1546.0480, -71.432
1546.0520, -71.887
1546.0560, -71.100
1546.0600, -71.845
1546.0640, -72.332
1546.0680, -71.791
1546.0720, -73.259
1546.0760, -73.049
1546.0800, -71.202
1546.0840, -72.104
1546.0880, -70.878
1546.0920, -71.308
1546.0960, -72.502
1546.1000, -72.660
1546.1040, -71.916
1546.1080, -72.025
1546.1120, -71.968
1546.1160, -72.119
1546.1200, -71.391
1546.1240, -71.958
1546.1280, -73.223
1546.1320, -73.098
1546.1360, -72.021
1546.1400, -73.436
1546.1440, -72.687
1546.1480, -73.362
1546.1520, -73.109
1546.1560, -72.015
1546.1600, -71.828
1546.1640, -73.585
1546.1680, -70.738
1546.1720, -71.479
1546.1760, -72.309
1546.1800, -71.584
1546.1840, -71.866
1546.1880, -72.102
1546.1920, -71.849
1546.1960, -71.799
1546.2000, -73.927
1546.2040, -72.314
1546.2080, -72.981
1546.2120, -72.168
1546.2160, -71.983
1546.2200, -71.780
1546.2240, -72.507
1546.2280, -72.119
1546.2320, -72.733
1546.2360, -72.176
1546.2400, -72.442
1546.2440, -72.989
1546.2480, -71.508
1546.2520, -72.334
1546.2560, -71.933
1546.2600, -73.870
1546.2640, -72.831
1546.2680, -73.039
1546.2720, -71.189
1546.2760, -72.159
1546.2800, -72.566
1546.2840, -71.974
1546.2880, -71.722
1546.2920, -71.764
1546.2960, -73.873
1546.3000, -73.295
1546.3040, -71.786
1546.3080, -72.235
1546.3120, -71.767
1546.3160, -73.098
1546.3200, -71.910
1546.3240, -72.007
1546.3280, -71.494
1546.3320, -71.179
1546.3360, -71.911
1546.3400, -72.000
1546.3440, -71.210
1546.3480, -72.300
1546.3520, -72.136
1546.3560, -71.804
1546.3600, -71.678
1546.3640, -72.304
1546.3680, -71.710
1546.3720, -72.106
1546.3760, -72.848
1546.3800, -73.695
1546.3840, -72.137
1546.3880, -72.194
1546.3920, -72.340
1546.3960, -71.488
1546.4000, -71.320
1546.4040, -71.270
1546.4080, -71.787
1546.4120, -72.055
1546.4160, -70.413
1546.4200, -72.625
1546.4240, -71.941
1546.4280, -71.092
1546.4320, -71.367
1546.4360, -71.106
1546.4400, -71.376
1546.4440, -72.213
1546.4480, -71.134
1546.4520, -71.660
1546.4560, -72.576
1546.4600, -73.317
1546.4640, -71.951
1546.4680, -71.322
1546.4720, -72.400
1546.4760, -70.886
1546.4800, -70.803
1546.4840, -71.010
1546.4880, -71.703
1546.4920, -73.013
1546.4960, -73.788
1546.5000, -71.887
1546.5040, -71.105
1546.5080, -71.970
1546.5120, -71.346
1546.5160, -72.303
1546.5200, -72.175
1546.5240, -71.367
1546.5280, -72.045
1546.5320, -72.058
1546.5360, -72.761
1546.5400, -71.856
1546.5440, -71.884
1546.5480, -72.064
1546.5520, -72.764
1546.5560, -72.151
1546.5600, -71.885
1546.5640, -72.305
1546.5680, -71.494
1546.5720, -72.460
1546.5760, -71.231
1546.5800, -71.525
1546.5840, -72.328
1546.5880, -73.000
1546.5920, -71.395
1546.5960, -71.217
1546.6000, -72.235
1546.6040, -72.803
1546.6080, -70.984
1546.6120, -71.906
1546.6160, -71.657
1546.6200, -72.116
1546.6240, -72.001
1546.6280, -71.624
1546.6320, -71.813
1546.6360, -71.859
1546.6400, -71.980
1546.6440, -72.352
1546.6480, -71.568
1546.6520, -71.781
1546.6560, -71.662
1546.6600, -72.835
1546.6640, -72.832
1546.6680, -71.562
1546.6720, -72.488
1546.6760, -71.840
1546.6800, -72.513
1546.6840, -72.543
1546.6880, -72.077
1546.6920, -71.125
1546.6960, -71.293
1546.7000, -72.074
1546.7040, -71.651
1546.7080, -72.222
1546.7120, -71.475
1546.7160, -72.235
1546.7200, -71.149
1546.7240, -72.377
1546.7280, -71.798
1546.7320, -71.617
1546.7360, -72.238
1546.7400, -71.491
1546.7440, -71.158
1546.7480, -71.612
1546.7520, -71.713
1546.7560, -71.637
1546.7600, -72.173
1546.7640, -72.578
1546.7680, -71.865
1546.7720, -71.761
1546.7760, -72.243
1546.7800, -73.949
1546.7840, -73.840
1546.7880, -70.900
1546.7920, -72.116
1546.7960, -72.129
1546.8000, -71.421
1546.8040, -71.878
1546.8080, -72.112
1546.8120, -73.767
1546.8160, -72.396
1546.8200, -72.049
1546.8240, -72.687
1546.8280, -71.265
1546.8320, -71.973
1546.8360, -73.823
1546.8400, -71.164
1546.8440, -71.848
1546.8480, -72.162
1546.8520, -73.174
1546.8560, -71.833
1546.8600, -71.949
1546.8640, -72.189
1546.8680, -72.294
1546.8720, -72.607
1546.8760, -72.343
1546.8800, -72.483
1546.8840, -72.504
1546.8880, -71.190
1546.8920, -72.411
1546.8960, -71.224
1546.9000, -71.842
1546.9040, -72.455
1546.9080, -71.590
1546.9120, -71.436
1546.9160, -71.417
1546.9200, -73.005
1546.9240, -72.147
1546.9280, -72.354
1546.9320, -72.854
1546.9360, -72.539
1546.9400, -72.113
1546.9440, -73.469
1546.9480, -71.818
1546.9520, -72.199
1546.9560, -72.568
1546.9600, -72.506
1546.9640, -72.090
1546.9680, -72.977
1546.9720, -72.849
1546.9760, -72.149
1546.9800, -72.312
1546.9840, -72.232
1546.9880, -71.674
1546.9920, -72.237
1546.9960, -71.921
1547.0000, -70.923
1547.0040, -71.256
1547.0080, -73.871
1547.0120, -72.140
1547.0160, -71.635
1547.0200, -72.069
1547.0240, -71.694
1547.0280, -71.868
1547.0320, -73.262
1547.0360, -71.006
1547.0400, -71.641
1547.0440, -72.399
1547.0480, -72.500
1547.0520, -71.793
1547.0560, -71.345
1547.0600, -71.461
1547.0640, -72.418
1547.0680, -71.120
1547.0720, -71.240
1547.0760, -71.487
1547.0800, -71.046
1547.0840, -72.047
1547.0880, -73.041
1547.0920, -71.693
1547.0960, -73.426
1547.1000, -72.318
1547.1040, -72.066
1547.1080, -71.271
1547.1120, -71.192
1547.1160, -73.570
1547.1200, -71.187
1547.1240, -72.279
1547.1280, -74.237
1547.1320, -72.664
1547.1360, -71.646
1547.1400, -72.558
1547.1440, -71.039
1547.1480, -71.946
1547.1520, -73.220
1547.1560, -71.841
1547.1600, -71.645
1547.1640, -72.189
1547.1680, -71.869
1547.1720, -73.422
1547.1760, -72.067
1547.1800, -72.527
1547.1840, -71.400
1547.1880, -71.658
1547.1920, -72.723
1547.1960, -71.651
1547.2000, -73.546
1547.2040, -72.521
1547.2080, -71.805
1547.2120, -71.617
1547.2160, -72.023
1547.2200, -71.949
1547.2240, -72.084
1547.2280, -71.556
1547.2320, -72.783
1547.2360, -72.973
1547.2400, -71.275
1547.2440, -72.339
1547.2480, -73.069
1547.2520, -71.759
1547.2560, -71.814
1547.2600, -73.194
1547.2640, -72.006
1547.2680, -73.059
1547.2720, -72.180
1547.2760, -72.361
1547.2800, -71.674
1547.2840, -71.663
1547.2880, -71.723
1547.2920, -72.429
1547.2960, -73.074
1547.3000, -71.944
1547.3040, -72.050
1547.3080, -71.739
1547.3120, -72.671
1547.3160, -73.472
1547.3200, -72.772
1547.3240, -72.455
1547.3280, -71.984
1547.3320, -73.483
1547.3360, -71.989
1547.3400, -73.219
1547.3440, -72.285
1547.3480, -71.935
1547.3520, -71.959
1547.3560, -72.414
1547.3600, -71.440
1547.3640, -72.287
1547.3680, -71.047
1547.3720, -71.762
1547.3760, -71.958
1547.3800, -72.337
1547.3840, -72.716
1547.3880, -72.189
1547.3920, -73.083
1547.3960, -72.666
1547.4000, -72.746
1547.4040, -71.546
1547.4080, -72.038
1547.4120, -72.007
1547.4160, -73.344
1547.4200, -72.124
1547.4240, -72.860
1547.4280, -71.238
1547.4320, -71.372
1547.4360, -71.880
1547.4400, -71.603
1547.4440, -71.413
1547.4480, -72.684
1547.4520, -72.578
1547.4560, -72.502
1547.4600, -71.534
1547.4640, -71.342
1547.4680, -72.391
1547.4720, -73.804
1547.4760, -72.755
1547.4800, -71.612
1547.4840, -72.135
1547.4880, -71.393
1547.4920, -72.292
1547.4960, -72.152
1547.5000, -72.208
1547.5040, -71.408
1547.5080, -72.311
1547.5120, -72.657
1547.5160, -73.500
1547.5200, -72.910
1547.5240, -71.471
1547.5280, -72.091
1547.5320, -73.155
1547.5360, -73.601
1547.5400, -72.212
1547.5440, -72.332
1547.5480, -71.349
1547.5520, -71.709
1547.5560, -71.047
1547.5600, -73.314
1547.5640, -71.709
1547.5680, -70.652
1547.5720, -71.661
1547.5760, -71.629
1547.5800, -72.582
1547.5840, -71.725
1547.5880, -72.629
1547.5920, -71.441
1547.5960, -72.246
1547.6000, -71.831
1547.6040, -71.785
1547.6080, -71.377
1547.6120, -71.912
1547.6160, -73.467
1547.6200, -72.551
1547.6240, -72.814
1547.6280, -72.004
1547.6320, -71.897
1547.6360, -73.679
1547.6400, -71.716
1547.6440, -72.711
1547.6480, -71.895
1547.6520, -71.407
1547.6560, -72.303
1547.6600, -72.377
1547.6640, -72.171
1547.6680, -72.158
1547.6720, -72.764
1547.6760, -72.084
1547.6800, -72.985
1547.6840, -71.651
1547.6880, -72.757
1547.6920, -73.483
1547.6960, -73.596
1547.7000, -73.090
1547.7040, -74.222
1547.7080, -73.077
1547.7120, -72.465
1547.7160, -72.614
1547.7200, -73.331
1547.7240, -71.021
1547.7280, -73.663
1547.7320, -72.763
1547.7360, -71.831
1547.7400, -72.870
1547.7440, -72.861
1547.7480, -72.492
1547.7520, -71.405
1547.7560, -72.796
1547.7600, -72.888
1547.7640, -73.381
1547.7680, -73.048
1547.7720, -72.846
1547.7760, -72.097
1547.7800, -72.223
1547.7840, -71.558
1547.7880, -72.215
1547.7920, -72.730
1547.7960, -73.008
1547.8000, -71.673
1547.8040, -73.043
1547.8080, -71.482
1547.8120, -72.670
1547.8160, -73.499
1547.8200, -72.535
1547.8240, -74.457
1547.8280, -73.962
1547.8320, -72.874
1547.8360, -74.984
1547.8400, -74.469
1547.8440, -71.980
1547.8480, -73.340
1547.8520, -72.982
1547.8560, -72.261
1547.8600, -71.967
1547.8640, -72.616
1547.8680, -72.611
1547.8720, -73.094
1547.8760, -73.693
1547.8800, -72.022
1547.8840, -72.873
1547.8880, -72.091
1547.8920, -71.620
1547.8960, -73.497
1547.9000, -72.681
1547.9040, -72.520
1547.9080, -73.415
1547.9120, -72.714
1547.9160, -71.878
1547.9200, -71.736
1547.9240, -72.126
1547.9280, -72.111
1547.9320, -72.093
1547.9360, -72.653
1547.9400, -73.355
1547.9440, -72.500
1547.9480, -72.453
1547.9520, -71.728
1547.9560, -73.555
1547.9600, -71.346
1547.9640, -72.952
1547.9680, -72.169
1547.9720, -72.589
1547.9760, -72.219
1547.9800, -71.778
1547.9840, -71.963
1547.9880, -72.880
1547.9920, -72.982
1547.9960, -73.680
1548.0000, -72.975
1548.0040, -72.072
1548.0080, -73.461
1548.0120, -71.989
1548.0160, -73.430
1548.0200, -73.388
1548.0240, -73.037
1548.0280, -71.738
1548.0320, -71.435
1548.0360, -71.115
1548.0400, -72.145
1548.0440, -72.372
1548.0480, -72.187
1548.0520, -74.166
1548.0560, -71.647
1548.0600, -72.782
1548.0640, -72.776
1548.0680, -73.256
1548.0720, -72.180
1548.0760, -72.136
1548.0800, -72.185
1548.0840, -72.389
1548.0880, -72.144
1548.0920, -71.715
1548.0960, -71.508
1548.1000, -71.793
1548.1040, -72.880
1548.1080, -72.087
1548.1120, -72.249
1548.1160, -72.110
1548.1200, -73.357
1548.1240, -72.311
1548.1280, -72.881
1548.1320, -72.868
1548.1360, -72.328
1548.1400, -71.501
1548.1440, -71.082
1548.1480, -72.130
1548.1520, -72.436
1548.1560, -73.359
1548.1600, -72.427
1548.1640, -71.650
1548.1680, -72.889
1548.1720, -71.544
1548.1760, -71.750
1548.1800, -71.888
1548.1840, -72.709
1548.1880, -71.977
1548.1920, -71.541
1548.1960, -72.975
1548.2000, -73.143
1548.2040, -71.803
1548.2080, -71.504
1548.2120, -72.433
1548.2160, -71.944
1548.2200, -72.795
1548.2240, -71.129
1548.2280, -71.640
1548.2320, -72.823
1548.2360, -72.638
1548.2400, -72.622
1548.2440, -71.907
1548.2480, -71.538
1548.2520, -72.802
1548.2560, -72.322
1548.2600, -74.466
1548.2640, -72.852
1548.2680, -73.885
1548.2720, -72.064
1548.2760, -71.563
1548.2800, -71.165
1548.2840, -73.654
1548.2880, -71.707
1548.2920, -72.004
1548.2960, -72.268
1548.3000, -72.628
1548.3040, -71.390
1548.3080, -72.772
1548.3120, -72.893
1548.3160, -72.288
1548.3200, -71.477
1548.3240, -71.338
1548.3280, -71.265
1548.3320, -72.016
1548.3360, -73.058
1548.3400, -71.677
1548.3440, -71.517
1548.3480, -72.090
1548.3520, -72.084
1548.3560, -72.025
1548.3600, -72.518
1548.3640, -71.507
1548.3680, -72.673
1548.3720, -72.526
1548.3760, -72.745
1548.3800, -71.912
1548.3840, -71.898
1548.3880, -71.610
1548.3920, -72.388
1548.3960, -71.399
1548.4000, -70.965
1548.4040, -72.258
1548.4080, -72.814
1548.4120, -71.427
1548.4160, -72.239
1548.4200, -71.588
1548.4240, -71.703
1548.4280, -72.208
1548.4320, -72.405
1548.4360, -72.089
1548.4400, -70.999
1548.4440, -71.967
1548.4480, -72.598
1548.4520, -72.590
1548.4560, -72.476
1548.4600, -72.590
1548.4640, -72.146
1548.4680, -71.625
1548.4720, -71.455
1548.4760, -73.101
1548.4800, -73.401
1548.4840, -72.650
1548.4880, -71.943
1548.4920, -72.536
1548.4960, -71.872
1548.5000, -72.238
1548.5040, -71.119
1548.5080, -71.430
1548.5120, -73.775
1548.5160, -72.986
1548.5200, -72.999
1548.5240, -72.015
1548.5280, -72.065
1548.5320, -71.737
1548.5360, -71.588
1548.5400, -71.778
1548.5440, -72.463
1548.5480, -71.602
1548.5520, -72.280
1548.5560, -72.844
1548.5600, -72.179
1548.5640, -72.516
1548.5680, -72.615
1548.5720, -71.997
1548.5760, -71.623
1548.5800, -71.848
1548.5840, -71.277
1548.5880, -71.145
1548.5920, -70.870
1548.5960, -71.626
1548.6000, -74.396
1548.6040, -71.743
1548.6080, -71.049
1548.6120, -72.675
1548.6160, -72.019
1548.6200, -71.473
1548.6240, -70.795
1548.6280, -71.542
1548.6320, -72.604
1548.6360, -71.383
1548.6400, -71.374
1548.6440, -71.736
1548.6480, -72.241
1548.6520, -71.067
1548.6560, -72.128
1548.6600, -73.158
1548.6640, -72.593
1548.6680, -70.926
1548.6720, -72.121
1548.6760, -71.125
1548.6800, -72.767
1548.6840, -71.674
1548.6880, -71.666
1548.6920, -71.446
1548.6960, -71.616
1548.7000, -72.630
1548.7040, -73.022
1548.7080, -71.652
1548.7120, -71.699
1548.7160, -72.534
1548.7200, -71.953
1548.7240, -71.879
1548.7280, -72.481
1548.7320, -74.148
1548.7360, -71.894
1548.7400, -71.545
1548.7440, -72.271
1548.7480, -71.858
1548.7520, -72.179
1548.7560, -71.544
1548.7600, -73.068
1548.7640, -72.206
1548.7680, -71.375
1548.7720, -71.084
1548.7760, -72.420
1548.7800, -70.839
1548.7840, -71.301
1548.7880, -72.315
1548.7920, -72.019
1548.7960, -71.085
1548.8000, -73.349
1548.8040, -72.144
1548.8080, -72.367
1548.8120, -71.241
1548.8160, -70.928
1548.8200, -70.881
1548.8240, -71.716
1548.8280, -70.892
1548.8320, -71.442
1548.8360, -72.630
1548.8400, -71.508
1548.8440, -71.189
1548.8480, -73.202
1548.8520, -72.765
1548.8560, -71.308
1548.8600, -72.035
1548.8640, -71.734
1548.8680, -71.141
1548.8720, -72.001
1548.8760, -71.319
1548.8800, -71.807
1548.8840, -72.214
1548.8880, -70.691
1548.8920, -71.540
1548.8960, -71.221
1548.9000, -71.935
1548.9040, -73.009
1548.9080, -70.851
1548.9120, -72.387
1548.9160, -71.611
1548.9200, -71.320
1548.9240, -72.430
1548.9280, -70.861
1548.9320, -70.921
1548.9360, -72.461
1548.9400, -72.112
1548.9440, -73.231
1548.9480, -72.331
1548.9520, -71.878
1548.9560, -71.509
1548.9600, -72.052
1548.9640, -71.083
1548.9680, -70.423
1548.9720, -70.659
1548.9760, -72.030
1548.9800, -72.414
1548.9840, -72.587
1548.9880, -73.240
1548.9920, -72.055
1548.9960, -73.083
1549.0000, -73.182
1549.0040, -72.698
1549.0080, -71.992
1549.0120, -72.512
1549.0160, -73.296
1549.0200, -73.337
1549.0240, -72.507
1549.0280, -72.454
1549.0320, -72.866
1549.0360, -72.444
1549.0400, -73.720
1549.0440, -74.458
1549.0480, -72.678
1549.0520, -73.567
1549.0560, -73.279
1549.0600, -74.849
1549.0640, -74.287
1549.0680, -73.851
1549.0720, -74.629
1549.0760, -73.138
1549.0800, -75.568
1549.0840, -73.862
1549.0880, -73.901
1549.0920, -74.148
1549.0960, -74.389
1549.1000, -73.892
1549.1040, -75.220
1549.1080, -77.990
1549.1120, -75.367
1549.1160, -72.352
1549.1200, -74.466
1549.1240, -73.817
1549.1280, -76.689
1549.1320, -73.705
1549.1360, -74.053
1549.1400, -74.265
1549.1440, -76.841
1549.1480, -76.533
1549.1520, -77.425
1549.1560, -73.708
1549.1600, -74.596
1549.1640, -79.445
1549.1680, -81.252
1549.1720, -80.885
1549.1760, -75.012
1549.1800, -76.620
1549.1840, -75.990
1549.1880, -76.376
1549.1920, -76.807
1549.1960, -75.421
1549.2000, -76.082
1549.2040, -78.603
1549.2080, -75.439
1549.2120, -75.197
1549.2160, -82.002
1549.2200, -80.780
1549.2240, -74.250
1549.2280, -74.647
1549.2320, -76.422
1549.2360, -74.077
1549.2400, -74.653
1549.2440, -73.714
1549.2480, -75.656
1549.2520, -78.106
1549.2560, -76.588
1549.2600, -73.985
1549.2640, -73.437
1549.2680, -71.790
1549.2720, -74.436
1549.2760, -72.396
1549.2800, -71.824
1549.2840, -70.940
1549.2880, -70.733
1549.2920, -70.307
1549.2960, -69.849
1549.3000, -69.229
1549.3040, -68.453
1549.3080, -67.966
1549.3120, -66.794
1549.3160, -66.214
1549.3200, -65.335
1549.3240, -64.999
1549.3280, -64.022
1549.3320, -62.959
1549.3360, -61.748
1549.3400, -60.586
1549.3440, -59.149
1549.3480, -57.257
1549.3520, -53.634
1549.3560, -50.200
1549.3600, -47.793
1549.3640, -45.577
1549.3680, -43.500
1549.3720, -41.493
1549.3760, -39.919
1549.3800, -38.245
1549.3840, -36.361
1549.3880, -35.203
1549.3920, -34.068
1549.3960, -32.994
1549.4000, -32.162
1549.4040, -31.336
1549.4080, -29.774
1549.4120, -28.315
1549.4160, -26.934
1549.4200, -24.626
1549.4240, -20.731
1549.4280, -17.609
1549.4320, -15.565
1549.4360, -13.984
1549.4400, -12.918
1549.4440, -12.131
1549.4480, -11.553
1549.4520, -10.925
1549.4560, -10.218
1549.4600,  -9.822
1549.4640, -10.067
1549.4680, -11.015
1549.4720, -12.224
1549.4760, -13.822
1549.4800, -16.179
1549.4840, -19.055
1549.4880, -22.755
1549.4920, -26.111
1549.4960, -28.618
1549.5000, -30.165
1549.5040, -31.323
1549.5080, -31.962
1549.5120, -32.743
1549.5160, -33.801
1549.5200, -34.539
1549.5240, -35.221
1549.5280, -36.198
1549.5320, -37.495
1549.5360, -39.178
1549.5400, -41.246
1549.5440, -43.220
1549.5480, -45.409
1549.5520, -47.726
1549.5560, -50.302
1549.5600, -53.106
1549.5640, -54.807
1549.5680, -55.974
1549.5720, -57.066
1549.5760, -58.116
1549.5800, -58.706
1549.5840, -59.289
1549.5880, -60.036
1549.5920, -60.629
1549.5960, -61.086
1549.6000, -61.518
1549.6040, -62.014
1549.6080, -62.539
1549.6120, -62.953
1549.6160, -63.520
1549.6200, -63.635
1549.6240, -63.873
1549.6280, -64.216
1549.6320, -64.341
1549.6360, -64.758
1549.6400, -65.061
1549.6440, -64.819
1549.6480, -65.312
1549.6520, -65.440
1549.6560, -65.857
1549.6600, -65.693
1549.6640, -66.010
1549.6680, -66.018
1549.6720, -66.148
1549.6760, -66.689
1549.6800, -66.791
1549.6840, -67.070
1549.6880, -67.151
1549.6920, -67.337
1549.6960, -67.234
1549.7000, -67.848
1549.7040, -67.672
1549.7080, -67.691
1549.7120, -67.685
1549.7160, -67.939
1549.7200, -67.784
1549.7240, -67.893
1549.7280, -68.380
1549.7320, -68.295
1549.7360, -68.202
1549.7400, -68.450
1549.7440, -68.304
1549.7480, -68.098
1549.7520, -67.909
1549.7560, -68.371
1549.7600, -68.449
1549.7640, -67.666
1549.7680, -68.541
1549.7720, -68.311
1549.7760, -68.756
1549.7800, -68.673
1549.7840, -69.235
1549.7880, -68.936
1549.7920, -68.837
1549.7960, -69.096
1549.8000, -68.682
1549.8040, -68.329
1549.8080, -68.796
1549.8120, -69.357
1549.8160, -69.352
1549.8200, -69.087
1549.8240, -69.691
1549.8280, -69.796
1549.8320, -69.396
1549.8360, -69.783
1549.8400, -69.219
1549.8440, -69.837
1549.8480, -69.957
1549.8520, -69.000
1549.8560, -69.476
1549.8600, -69.830
1549.8640, -70.277
1549.8680, -69.434
1549.8720, -70.254
1549.8760, -69.709
1549.8800, -70.277
1549.8840, -69.851
1549.8880, -70.866
1549.8920, -70.630
1549.8960, -70.350
1549.9000, -69.801
1549.9040, -69.982
1549.9080, -70.979
1549.9120, -70.591
1549.9160, -70.189
1549.9200, -70.797
1549.9240, -70.010
1549.9280, -70.836
1549.9320, -70.247
1549.9360, -70.425
1549.9400, -70.358
1549.9440, -70.714
1549.9480, -71.052
1549.9520, -70.521
1549.9560, -71.038
1549.9600, -71.340
1549.9640, -70.280
1549.9680, -71.000
1549.9720, -71.480
1549.9760, -71.507
1549.9800, -71.407
1549.9840, -71.310
1549.9880, -70.661
1549.9920, -72.355
1549.9960, -71.405
1550.0000, -73.090
1550.0040, -71.359
1550.0080, -71.133
1550.0120, -71.636
1550.0160, -71.213
1550.0200, -71.333
1550.0240, -70.991
1550.0280, -70.886
1550.0320, -71.457
1550.0360, -72.146
1550.0400, -71.483
1550.0440, -71.594
1550.0480, -71.572
1550.0520, -71.504
1550.0560, -71.606
1550.0600, -72.074
1550.0640, -72.145
1550.0680, -71.815
1550.0720, -71.575
1550.0760, -71.595
1550.0800, -71.949
1550.0840, -71.898
1550.0880, -70.305
1550.0920, -71.250
1550.0960, -71.522
1550.1000, -71.893
1550.1040, -70.712
1550.1080, -72.037
1550.1120, -72.032
1550.1160, -72.510
1550.1200, -72.069
1550.1240, -71.423
1550.1280, -70.848
1550.1320, -74.280
1550.1360, -71.362
1550.1400, -71.810
1550.1440, -71.832
1550.1480, -72.292
1550.1520, -71.949
1550.1560, -72.827
1550.1600, -72.104
1550.1640, -71.724
1550.1680, -71.913
1550.1720, -71.973
1550.1760, -72.825
1550.1800, -72.109
1550.1840, -71.936
1550.1880, -71.837
1550.1920, -72.400
1550.1960, -72.639
1550.2000, -71.840
1550.2040, -71.753
1550.2080, -71.279
1550.2120, -72.145
1550.2160, -72.687
1550.2200, -72.080
1550.2240, -70.911
1550.2280, -71.244
1550.2320, -71.710
1550.2360, -71.117
1550.2400, -71.648
1550.2440, -72.333
1550.2480, -71.541
1550.2520, -71.937
1550.2560, -72.846
1550.2600, -72.172
1550.2640, -71.253
1550.2680, -72.233
1550.2720, -72.497
1550.2760, -71.530
1550.2800, -71.573
1550.2840, -71.879
1550.2880, -71.588
1550.2920, -72.747
1550.2960, -71.763
1550.3000, -71.599
1550.3040, -72.416
1550.3080, -71.929
1550.3120, -71.814
1550.3160, -71.679
1550.3200, -71.753
1550.3240, -71.298
1550.3280, -72.828
1550.3320, -72.133
1550.3360, -71.652
1550.3400, -72.158
1550.3440, -72.188
1550.3480, -72.029
1550.3520, -72.328
1550.3560, -71.488
1550.3600, -73.032
1550.3640, -72.431
1550.3680, -72.133
1550.3720, -71.158
1550.3760, -72.492
1550.3800, -72.617
1550.3840, -73.411
1550.3880, -72.177
1550.3920, -72.246
1550.3960, -71.372
1550.4000, -72.619
1550.4040, -71.225
1550.4080, -72.146
1550.4120, -71.902
1550.4160, -71.163
1550.4200, -71.752
1550.4240, -72.434
1550.4280, -72.005
1550.4320, -72.737
1550.4360, -72.052
1550.4400, -71.832
1550.4440, -71.758
1550.4480, -71.761
1550.4520, -72.180
1550.4560, -72.706
1550.4600, -72.032
1550.4640, -72.230
1550.4680, -71.195
1550.4720, -71.313
1550.4760, -72.010
1550.4800, -71.631
1550.4840, -72.420
1550.4880, -71.618
1550.4920, -71.466
1550.4960, -71.789
1550.5000, -72.063
1550.5040, -72.159
1550.5080, -71.698
1550.5120, -72.984
1550.5160, -72.457
1550.5200, -72.743
1550.5240, -72.226
1550.5280, -71.909
1550.5320, -71.204
1550.5360, -71.374
1550.5400, -72.019
1550.5440, -72.412
1550.5480, -71.961
1550.5520, -71.272
1550.5560, -71.772
1550.5600, -71.673
1550.5640, -70.763
1550.5680, -71.136
1550.5720, -71.520
1550.5760, -72.183
1550.5800, -72.221
1550.5840, -72.023
1550.5880, -71.675
1550.5920, -72.727
1550.5960, -71.133
1550.6000, -71.498
1550.6040, -72.151
1550.6080, -71.623
1550.6120, -71.809
1550.6160, -72.292
1550.6200, -72.292
1550.6240, -71.332
1550.6280, -72.502
1550.6320, -71.832
1550.6360, -71.738
1550.6400, -71.104
1550.6440, -72.557
1550.6480, -71.519
1550.6520, -71.214
1550.6560, -72.960
1550.6600, -71.354
1550.6640, -71.424
1550.6680, -72.167
1550.6720, -72.837
1550.6760, -71.618
1550.6800, -71.563
1550.6840, -72.412
1550.6880, -72.047
1550.6920, -72.382
1550.6960, -71.532
1550.7000, -71.495
1550.7040, -72.336
1550.7080, -71.732
1550.7120, -72.359
1550.7160, -71.737
1550.7200, -73.175
1550.7240, -71.231
1550.7280, -71.755
1550.7320, -71.317
1550.7360, -71.279
1550.7400, -72.489
1550.7440, -71.410
1550.7480, -72.463
1550.7520, -73.186
1550.7560, -72.238
1550.7600, -73.141
1550.7640, -71.188
1550.7680, -73.418
1550.7720, -72.192
1550.7760, -71.988
1550.7800, -71.523
1550.7840, -71.926
1550.7880, -71.878
1550.7920, -70.555
1550.7960, -71.668
1550.8000, -72.756
1550.8040, -73.527
1550.8080, -71.424
1550.8120, -71.182
1550.8160, -70.797
1550.8200, -72.001
1550.8240, -72.039
1550.8280, -71.060
1550.8320, -71.496
1550.8360, -71.854
1550.8400, -71.298
1550.8440, -72.105
1550.8480, -71.957
1550.8520, -71.615
1550.8560, -73.115
1550.8600, -71.533
1550.8640, -72.117
1550.8680, -70.846
1550.8720, -72.271
1550.8760, -71.463
1550.8800, -71.477
1550.8840, -71.665
1550.8880, -71.362
1550.8920, -72.305
1550.8960, -73.739
1550.9000, -72.576
1550.9040, -72.259
1550.9080, -72.232
1550.9120, -72.355
1550.9160, -71.516
1550.9200, -71.726
1550.9240, -70.870
1550.9280, -71.101
1550.9320, -71.287
1550.9360, -71.880
1550.9400, -72.247
1550.9440, -72.060
1550.9480, -73.023
1550.9520, -71.608
1550.9560, -74.121
1550.9600, -71.916
1550.9640, -72.037
1550.9680, -70.503
1550.9720, -72.772
1550.9760, -73.296
1550.9800, -71.479
1550.9840, -71.002
1550.9880, -71.304
1550.9920, -72.007
1550.9960, -71.670
1551.0000, -71.163
1551.0040, -71.067
1551.0080, -71.410
1551.0120, -71.799
1551.0160, -71.471
1551.0200, -72.063
1551.0240, -71.187
1551.0280, -71.028
1551.0320, -72.002
1551.0360, -73.469
1551.0400, -72.001
1551.0440, -71.277
1551.0480, -71.649
1551.0520, -70.999
1551.0560, -73.025
1551.0600, -71.746
1551.0640, -72.065
1551.0680, -72.155
1551.0720, -71.095
1551.0760, -71.376
1551.0800, -71.629
1551.0840, -71.850
1551.0880, -72.822
1551.0920, -72.049
1551.0960, -71.853
1551.1000, -72.084
1551.1040, -71.842
1551.1080, -72.024
1551.1120, -70.940
1551.1160, -71.385
1551.1200, -71.521
1551.1240, -71.590
1551.1280, -72.855
1551.1320, -72.691
1551.1360, -72.940
1551.1400, -71.983
1551.1440, -72.550
1551.1480, -71.949
1551.1520, -71.197
1551.1560, -71.505
1551.1600, -71.978
1551.1640, -72.473
1551.1680, -71.980
1551.1720, -71.718
1551.1760, -71.974
1551.1800, -72.082
1551.1840, -72.142
1551.1880, -71.515
1551.1920, -71.674
1551.1960, -71.447
1551.2000, -71.577
1551.2040, -72.044
1551.2080, -72.522
1551.2120, -73.293
1551.2160, -71.847
1551.2200, -71.232
1551.2240, -71.714
1551.2280, -71.896
1551.2320, -72.092
1551.2360, -71.271
1551.2400, -72.144
1551.2440, -71.708
1551.2480, -71.605
1551.2520, -71.960
1551.2560, -70.567
1551.2600, -71.238
1551.2640, -71.326
1551.2680, -71.541
1551.2720, -72.679
1551.2760, -71.637
1551.2800, -71.014
1551.2840, -70.836
1551.2880, -71.799
1551.2920, -72.747
1551.2960, -72.342
1551.3000, -70.718
1551.3040, -71.276
1551.3080, -71.516
1551.3120, -71.399
1551.3160, -71.981
1551.3200, -71.458
1551.3240, -72.872
1551.3280, -71.541
1551.3320, -72.671
1551.3360, -72.670
1551.3400, -71.909
1551.3440, -72.114
1551.3480, -71.362
1551.3520, -71.804
1551.3560, -71.287
1551.3600, -72.398
1551.3640, -71.960
1551.3680, -74.323
1551.3720, -72.109
1551.3760, -71.956
1551.3800, -71.509
1551.3840, -72.339
1551.3880, -71.885
1551.3920, -71.238
1551.3960, -72.645
1551.4000, -71.253
1551.4040, -72.983
1551.4080, -73.204
1551.4120, -71.481
1551.4160, -72.129
1551.4200, -71.847
1551.4240, -71.988
1551.4280, -72.620
1551.4320, -71.641
1551.4360, -72.781
1551.4400, -71.626
1551.4440, -71.247
1551.4480, -71.705
1551.4520, -71.642
1551.4560, -72.839
1551.4600, -72.057
1551.4640, -70.749
1551.4680, -71.389
1551.4720, -73.252
1551.4760, -72.056
1551.4800, -73.639
1551.4840, -71.745
1551.4880, -72.232
1551.4920, -70.980
1551.4960, -70.856
1551.5000, -71.164
1551.5040, -71.546
1551.5080, -71.667
1551.5120, -71.414
1551.5160, -72.005
1551.5200, -71.391
1551.5240, -73.314
1551.5280, -72.231
1551.5320, -71.822
1551.5360, -71.347
1551.5400, -71.575
1551.5440, -71.876
1551.5480, -72.087
1551.5520, -72.322
1551.5560, -71.464
1551.5600, -71.869
1551.5640, -71.953
1551.5680, -71.159
1551.5720, -71.656
1551.5760, -71.758
1551.5800, -70.310
1551.5840, -71.326
1551.5880, -70.764
1551.5920, -71.892
1551.5960, -71.837
1551.6000, -72.012
1551.6040, -72.003
1551.6080, -72.056
1551.6120, -71.521
1551.6160, -72.238
1551.6200, -71.400
1551.6240, -72.091
1551.6280, -71.691
1551.6320, -71.687
1551.6360, -70.986
1551.6400, -71.689
1551.6440, -71.093
1551.6480, -72.963
1551.6520, -70.808
1551.6560, -71.191
1551.6600, -72.179
1551.6640, -71.276
1551.6680, -71.375
1551.6720, -71.133
1551.6760, -71.336
1551.6800, -72.173
1551.6840, -71.613
1551.6880, -71.738
1551.6920, -71.444
1551.6960, -72.535
1551.7000, -72.827
1551.7040, -72.824
1551.7080, -71.867
1551.7120, -72.412
1551.7160, -72.301
1551.7200, -73.477
1551.7240, -71.597
1551.7280, -71.837
1551.7320, -70.530
1551.7360, -71.953
1551.7400, -71.440
1551.7440, -71.415
1551.7480, -72.130
1551.7520, -72.391
1551.7560, -72.649
1551.7600, -72.762
1551.7640, -71.463
1551.7680, -72.427
1551.7720, -71.514
1551.7760, -72.756
1551.7800, -73.179
1551.7840, -72.345
1551.7880, -73.493
1551.7920, -72.727
1551.7960, -71.823
1551.8000, -72.206
1551.8040, -71.595
1551.8080, -72.272
1551.8120, -72.255
1551.8160, -71.945
1551.8200, -71.750
1551.8240, -72.923
1551.8280, -72.186
1551.8320, -71.161
1551.8360, -72.568
1551.8400, -70.576
1551.8440, -72.611
1551.8480, -71.558
1551.8520, -71.004
1551.8560, -71.289
1551.8600, -71.772
1551.8640, -72.456
1551.8680, -72.063
1551.8720, -72.383
1551.8760, -71.834
1551.8800, -72.105
1551.8840, -71.752
1551.8880, -72.300
1551.8920, -70.888
1551.8960, -71.442
1551.9000, -72.240
1551.9040, -72.601
1551.9080, -71.561
1551.9120, -70.495
1551.9160, -71.684
1551.9200, -72.691
1551.9240, -71.812
1551.9280, -72.262
1551.9320, -71.494
1551.9360, -71.468
1551.9400, -72.236
1551.9440, -72.636
1551.9480, -71.705
1551.9520, -73.002
1551.9560, -71.861
1551.9600, -72.545
1551.9640, -71.276
1551.9680, -71.817
1551.9720, -72.919
1551.9760, -70.860
1551.9800, -71.490
1551.9840, -71.727
1551.9880, -72.111
1551.9920, -72.994
1551.9960, -72.698
1552.0000, -71.753
1552.0040, -71.198
1552.0080, -72.688
1552.0120, -71.915
1552.0160, -71.722
1552.0200, -72.249
1552.0240, -73.025
1552.0280, -71.901
1552.0320, -71.059
1552.0360, -71.913
1552.0400, -72.449
1552.0440, -71.971
1552.0480, -72.105
1552.0520, -70.353
1552.0560, -71.822
1552.0600, -72.186
1552.0640, -71.522
1552.0680, -70.734
1552.0720, -72.702
1552.0760, -72.450
1552.0800, -72.626
1552.0840, -71.400
1552.0880, -71.872
1552.0920, -71.494
1552.0960, -70.593
1552.1000, -71.519
1552.1040, -72.532
1552.1080, -73.892
1552.1120, -72.093
1552.1160, -71.781
1552.1200, -73.045
1552.1240, -73.313
1552.1280, -73.469
1552.1320, -71.937
1552.1360, -71.438
1552.1400, -71.286
1552.1440, -71.494
1552.1480, -71.995
1552.1520, -71.475
1552.1560, -71.982
1552.1600, -72.291
1552.1640, -74.127
1552.1680, -71.328
1552.1720, -71.442
1552.1760, -71.746
1552.1800, -73.035
1552.1840, -71.369
1552.1880, -71.626
1552.1920, -72.091
1552.1960, -71.587
1552.2000, -71.832
1552.2040, -71.932
1552.2080, -70.710
1552.2120, -71.654
1552.2160, -72.096
1552.2200, -72.224
1552.2240, -71.871
1552.2280, -71.754
1552.2320, -71.686
1552.2360, -71.150
1552.2400, -72.189
1552.2440, -71.550
1552.2480, -72.200
1552.2520, -70.993
1552.2560, -71.559
1552.2600, -71.651
1552.2640, -70.811
1552.2680, -71.680
1552.2720, -71.681
1552.2760, -71.919
1552.2800, -72.169
1552.2840, -72.742
1552.2880, -70.858
1552.2920, -72.113
1552.2960, -72.322
1552.3000, -73.264
1552.3040, -71.922
1552.3080, -71.440
1552.3120, -72.057
1552.3160, -71.642
1552.3200, -71.721
1552.3240, -70.663
1552.3280, -70.935
1552.3320, -71.619
1552.3360, -72.833
1552.3400, -71.489
1552.3440, -72.548
1552.3480, -71.231
1552.3520, -72.239
1552.3560, -71.409
1552.3600, -71.258
1552.3640, -71.714
1552.3680, -71.092
1552.3720, -74.801
1552.3760, -72.000
1552.3800, -71.382
1552.3840, -71.291
1552.3880, -73.020
1552.3920, -71.374
1552.3960, -71.529
1552.4000, -72.750
1552.4040, -71.577
1552.4080, -70.541
1552.4120, -72.216
1552.4160, -71.379
1552.4200, -70.668
1552.4240, -71.035
1552.4280, -72.669
1552.4320, -71.792
1552.4360, -71.817
1552.4400, -70.856
1552.4440, -71.569
1552.4480, -72.944
1552.4520, -71.944
1552.4560, -71.727
1552.4600, -70.928
1552.4640, -71.525
1552.4680, -71.935
1552.4720, -72.469
1552.4760, -70.942
1552.4800, -73.218
1552.4840, -71.801
1552.4880, -72.947
1552.4920, -72.920
1552.4960, -72.802
1552.5000, -71.548
1552.5040, -72.189
1552.5080, -71.585
1552.5120, -72.254
1552.5160, -72.852
1552.5200, -71.721
1552.5240, -72.795
1552.5280, -71.550
1552.5320, -71.140
1552.5360, -71.370
1552.5400, -72.080
1552.5440, -71.674
1552.5480, -70.436
1552.5520, -72.729
1552.5560, -71.086
1552.5600, -71.200
1552.5640, -71.261
1552.5680, -71.679
1552.5720, -72.052
1552.5760, -71.462
1552.5800, -72.640
1552.5840, -71.977
1552.5880, -71.657
1552.5920, -71.738
1552.5960, -71.608
1552.6000, -70.811
1552.6040, -71.407
1552.6080, -72.189
1552.6120, -73.059
1552.6160, -71.590
1552.6200, -71.039
1552.6240, -72.658
1552.6280, -72.956
1552.6320, -71.376
1552.6360, -71.862
1552.6400, -71.701
1552.6440, -72.122
1552.6480, -71.025
1552.6520, -72.889
1552.6560, -72.683
1552.6600, -71.401
1552.6640, -70.787
1552.6680, -71.741
1552.6720, -71.673
1552.6760, -70.881
1552.6800, -71.951
1552.6840, -72.597
1552.6880, -72.263
1552.6920, -72.009
1552.6960, -71.735
1552.7000, -72.145
1552.7040, -72.496
1552.7080, -72.054
1552.7120, -71.574
1552.7160, -71.929
1552.7200, -70.981
1552.7240, -71.028
1552.7280, -72.351
1552.7320, -71.737
1552.7360, -72.149
1552.7400, -71.892
1552.7440, -72.287
1552.7480, -72.036
1552.7520, -72.493
1552.7560, -72.588
1552.7600, -71.834
1552.7640, -72.564
1552.7680, -71.140
1552.7720, -71.505
1552.7760, -70.770
1552.7800, -71.578
1552.7840, -71.721
1552.7880, -71.977
1552.7920, -72.203
1552.7960, -71.382
1552.8000, -71.809
1552.8040, -72.329
1552.8080, -70.921
1552.8120, -72.424
1552.8160, -73.782
1552.8200, -71.531
1552.8240, -71.467
1552.8280, -71.542
1552.8320, -72.201
1552.8360, -71.860
1552.8400, -72.716
1552.8440, -71.540
1552.8480, -71.382
1552.8520, -72.036
1552.8560, -71.893
1552.8600, -71.677
1552.8640, -71.551
1552.8680, -71.508
1552.8720, -71.751
1552.8760, -71.898
1552.8800, -72.208
1552.8840, -72.180
1552.8880, -72.539
1552.8920, -71.786
1552.8960, -71.148
1552.9000, -71.100
1552.9040, -71.851
1552.9080, -71.358
1552.9120, -71.579
1552.9160, -71.345
1552.9200, -71.311
1552.9240, -71.343
1552.9280, -71.605
1552.9320, -72.078
1552.9360, -71.829
1552.9400, -70.942
1552.9440, -71.219
1552.9480, -72.432
1552.9520, -71.844
1552.9560, -71.451
1552.9600, -73.180
1552.9640, -73.892
1552.9680, -72.671
1552.9720, -72.656
1552.9760, -73.062
1552.9800, -72.365
1552.9840, -71.376
1552.9880, -71.447
1552.9920, -71.059
1552.9960, -71.513
1553.0000, -72.124
1553.0040, -71.804
1553.0080, -72.107
1553.0120, -71.263
1553.0160, -71.843
1553.0200, -71.272
1553.0240, -71.091
1553.0280, -72.293
1553.0320, -72.119
1553.0360, -71.711
1553.0400, -72.192
1553.0440, -71.664
1553.0480, -72.291
1553.0520, -71.587
1553.0560, -71.256
1553.0600, -71.474
1553.0640, -71.986
1553.0680, -71.625
1553.0720, -71.303
1553.0760, -71.904
1553.0800, -72.719
1553.0840, -70.924
1553.0880, -71.836
1553.0920, -71.986
1553.0960, -70.567
1553.1000, -71.658
1553.1040, -71.856
1553.1080, -72.139
1553.1120, -72.922
1553.1160, -72.227
1553.1200, -72.494
1553.1240, -71.285
1553.1280, -72.650
1553.1320, -71.929
1553.1360, -71.793
1553.1400, -71.250
1553.1440, -71.189
1553.1480, -72.664
1553.1520, -71.893
1553.1560, -71.377
1553.1600, -70.624
1553.1640, -72.130
1553.1680, -72.394
1553.1720, -73.846
1553.1760, -71.359
1553.1800, -71.262
1553.1840, -70.293
1553.1880, -71.044
1553.1920, -70.665
1553.1960, -70.715
1553.2000, -71.659
1553.2040, -72.153
1553.2080, -72.444
1553.2120, -72.735
1553.2160, -71.980
1553.2200, -72.433
1553.2240, -71.947
1553.2280, -71.485
1553.2320, -71.519
1553.2360, -72.405
1553.2400, -72.045
1553.2440, -71.819
1553.2480, -75.081
1553.2520, -72.554
1553.2560, -71.933
1553.2600, -70.343
1553.2640, -71.768
1553.2680, -70.943
1553.2720, -71.222
1553.2760, -72.388
1553.2800, -71.331
1553.2840, -71.437
1553.2880, -72.196
1553.2920, -72.050
1553.2960, -73.039
1553.3000, -70.676
1553.3040, -71.202
1553.3080, -72.115
1553.3120, -71.968
1553.3160, -72.288
1553.3200, -71.233
1553.3240, -71.292
1553.3280, -71.858
1553.3320, -71.789
1553.3360, -70.924
1553.3400, -72.773
1553.3440, -71.182
1553.3480, -71.643
1553.3520, -71.683
1553.3560, -72.147
1553.3600, -72.671
1553.3640, -72.289
1553.3680, -72.007
1553.3720, -71.133
1553.3760, -70.189
1553.3800, -72.340
1553.3840, -71.376
1553.3880, -72.710
1553.3920, -71.965
1553.3960, -70.849
1553.4000, -72.077
1553.4040, -71.296
1553.4080, -71.704
1553.4120, -72.088
1553.4160, -72.508
1553.4200, -71.347
1553.4240, -72.003
1553.4280, -71.702
1553.4320, -72.835
1553.4360, -71.835
1553.4400, -71.592
1553.4440, -71.231
1553.4480, -71.957
1553.4520, -71.378
1553.4560, -72.386
1553.4600, -71.414
1553.4640, -71.739
1553.4680, -71.485
1553.4720, -71.506
1553.4760, -72.113
1553.4800, -71.784
1553.4840, -71.804
1553.4880, -71.971
1553.4920, -70.977
1553.4960, -72.154
1553.5000, -71.776
