70BCSV 	
// AQ6370D OPTICAL SPECTRUM ANALYZER //                 
30
"CTRWL",1549.500000
"SPAN",   8.000000
"START WL",1545.500000
"STOP WL",1553.500000
"WLFREQ", 0
"REFL",-10.0
"LSCL",10.0
"RESLN",0.020
"AVG",   1
"SMPLAUTO",      1
"SMPL",       2001
"SMPLINTVL",0.0040
"MID"
"MEAS"
"LSUNT",0
"NMSKH","OFF"
"RESCOR",0
"SMOOTH",0
"FIBERTYPE",0
"MEASWL",0
"SWPSPD",1
"NEBWCAL0",    0
"NEBWCAL1",    0
"NEBWCALWL",   0
"RESPARM", 9838
"FREQPARM", 9838




"[TRACE DATA]"
1545.5000, -74.789
1545.5040, -74.367
1545.5080, -74.803
1545.5120, -73.360
1545.5160, -73.665
1545.5200, -75.152
1545.5240, -75.547
1545.5280, -73.343
1545.5320, -73.817
1545.5360, -74.972
1545.5400, -75.077
1545.5440, -75.193
1545.5480, -71.900
1545.5520, -74.434
1545.5560, -75.307
1545.5600, -73.482
1545.5640, -73.344
1545.5680, -73.741
1545.5720, -72.512
1545.5760, -74.409
1545.5800, -74.057
1545.5840, -74.986
1545.5880, -74.472
1545.5920, -73.975
1545.5960, -75.531
1545.6000, -75.657
1545.6040, -76.125
1545.6080, -73.319
1545.6120, -74.351
1545.6160, -74.193
1545.6200, -75.140
1545.6240, -76.174
1545.6280, -74.614
1545.6320, -73.181
1545.6360, -74.240
1545.6400, -76.398
1545.6440, -75.010
1545.6480, -74.089
1545.6520, -72.927
1545.6560, -74.396
1545.6600, -73.458
1545.6640, -74.655
1545.6680, -74.698
1545.6720, -75.393
1545.6760, -74.622
1545.6800, -75.985
1545.6840, -73.656
1545.6880, -74.670
1545.6920, -73.490
1545.6960, -74.769
1545.7000, -74.420
1545.7040, -73.966
1545.7080, -72.613
1545.7120, -73.743
1545.7160, -73.270
1545.7200, -73.852
1545.7240, -73.116
1545.7280, -74.080
1545.7320, -74.914
1545.7360, -74.668
1545.7400, -73.466
1545.7440, -73.430
1545.7480, -74.622
1545.7520, -74.778
1545.7560, -74.994
1545.7600, -75.544
1545.7640, -76.065
1545.7680, -75.222
1545.7720, -76.138
1545.7760, -75.442
1545.7800, -73.834
1545.7840, -74.014
1545.7880, -73.062
1545.7920, -75.001
1545.7960, -75.507
1545.8000, -73.939
1545.8040, -73.343
1545.8080, -75.942
1545.8120, -74.455
1545.8160, -74.960
1545.8200, -74.790
1545.8240, -74.927
1545.8280, -74.774
1545.8320, -74.652
1545.8360, -73.705
1545.8400, -73.997
1545.8440, -75.586
1545.8480, -74.291
1545.8520, -73.408
1545.8560, -76.431
1545.8600, -76.867
1545.8640, -76.434
1545.8680, -74.985
1545.8720, -75.534
1545.8760, -73.324
1545.8800, -77.426
1545.8840, -75.516
1545.8880, -74.746
1545.8920, -73.952
1545.8960, -74.069
1545.9000, -74.702
1545.9040, -74.218
1545.9080, -76.521
1545.9120, -72.999
1545.9160, -73.728
1545.9200, -72.804
1545.9240, -76.535
1545.9280, -73.160
1545.9320, -74.604
1545.9360, -73.378
1545.9400, -75.448
1545.9440, -74.250
1545.9480, -76.111
1545.9520, -73.953
1545.9560, -78.311
1545.9600, -74.256
1545.9640, -72.646
1545.9680, -74.666
1545.9720, -73.916
1545.9760, -74.416
1545.9800, -75.513
1545.9840, -74.952
1545.9880, -74.849
1545.9920, -76.346
1545.9960, -73.859
1546.0000, -73.141
1546.0040, -73.281
1546.0080, -74.551
1546.0120, -75.579
1546.0160, -74.727
1546.0200, -75.274
1546.0240, -74.962
1546.0280, -75.835
1546.0320, -73.063
1546.0360, -73.729
1546.0400, -74.999
1546.0440, -75.602
1546.0480, -74.292
1546.0520, -73.918
1546.0560, -74.250
1546.0600, -73.183
1546.0640, -74.798
1546.0680, -74.835
1546.0720, -77.883
1546.0760, -74.085
1546.0800, -73.660
1546.0840, -74.368
1546.0880, -74.761
1546.0920, -75.358
1546.0960, -74.056
1546.1000, -76.285
1546.1040, -74.670
1546.1080, -74.132
1546.1120, -76.061
1546.1160, -74.291
1546.1200, -74.093
1546.1240, -73.444
1546.1280, -73.613
1546.1320, -73.781
1546.1360, -73.662
1546.1400, -74.141
1546.1440, -74.087
1546.1480, -73.921
1546.1520, -74.673
1546.1560, -74.168
1546.1600, -72.373
1546.1640, -73.760
1546.1680, -75.996
1546.1720, -74.995
1546.1760, -73.995
1546.1800, -73.532
1546.1840, -74.378
1546.1880, -78.061
1546.1920, -74.118
1546.1960, -75.136
1546.2000, -73.932
1546.2040, -74.599
1546.2080, -74.246
1546.2120, -75.131
1546.2160, -74.736
1546.2200, -73.208
1546.2240, -72.967
1546.2280, -72.985
1546.2320, -78.587
1546.2360, -77.392
1546.2400, -75.482
1546.2440, -77.295
1546.2480, -73.824
1546.2520, -73.855
1546.2560, -77.792
1546.2600, -74.257
1546.2640, -74.773
1546.2680, -73.079
1546.2720, -75.893
1546.2760, -74.106
1546.2800, -73.909
1546.2840, -75.180
1546.2880, -76.408
1546.2920, -74.928
1546.2960, -73.144
1546.3000, -73.665
1546.3040, -75.861
1546.3080, -73.182
1546.3120, -74.310
1546.3160, -74.760
1546.3200, -74.082
1546.3240, -74.621
1546.3280, -73.643
1546.3320, -76.890
1546.3360, -74.601
1546.3400, -74.820
1546.3440, -75.027
1546.3480, -73.567
1546.3520, -72.741
1546.3560, -73.536
1546.3600, -73.904
1546.3640, -74.788
1546.3680, -72.729
1546.3720, -72.928
1546.3760, -73.423
1546.3800, -73.237
1546.3840, -73.860
1546.3880, -75.566
1546.3920, -73.611
1546.3960, -76.044
1546.4000, -75.522
1546.4040, -74.379
1546.4080, -74.353
1546.4120, -73.301
1546.4160, -75.142
1546.4200, -73.437
1546.4240, -74.915
1546.4280, -73.967
1546.4320, -72.942
1546.4360, -73.752
1546.4400, -74.926
1546.4440, -75.309
1546.4480, -75.138
1546.4520, -71.698
1546.4560, -75.061
1546.4600, -75.447
1546.4640, -75.671
1546.4680, -73.733
1546.4720, -76.503
1546.4760, -73.637
1546.4800, -73.259
1546.4840, -74.292
1546.4880, -75.036
1546.4920, -75.873
1546.4960, -76.339
1546.5000, -74.804
1546.5040, -75.743
1546.5080, -74.932
1546.5120, -73.794
1546.5160, -76.801
1546.5200, -74.553
1546.5240, -73.174
1546.5280, -74.947
1546.5320, -73.475
1546.5360, -72.897
1546.5400, -74.144
1546.5440, -77.169
1546.5480, -75.864
1546.5520, -74.625
1546.5560, -75.195
1546.5600, -73.110
1546.5640, -75.707
1546.5680, -74.419
1546.5720, -75.990
1546.5760, -74.384
1546.5800, -75.993
1546.5840, -74.069
1546.5880, -74.848
1546.5920, -75.392
1546.5960, -73.229
1546.6000, -74.875
1546.6040, -78.427
1546.6080, -75.554
1546.6120, -73.327
1546.6160, -73.123
1546.6200, -73.933
1546.6240, -74.722
1546.6280, -72.967
1546.6320, -73.971
1546.6360, -74.506
1546.6400, -75.339
1546.6440, -73.710
1546.6480, -75.125
1546.6520, -76.007
1546.6560, -74.882
1546.6600, -73.116
1546.6640, -75.109
1546.6680, -74.570
1546.6720, -74.400
1546.6760, -76.984
1546.6800, -77.905
1546.6840, -74.175
1546.6880, -73.215
1546.6920, -74.180
1546.6960, -73.939
1546.7000, -74.342
1546.7040, -75.052
1546.7080, -73.586
1546.7120, -72.450
1546.7160, -73.787
1546.7200, -73.146
1546.7240, -72.999
1546.7280, -75.084
1546.7320, -74.323
1546.7360, -77.568
1546.7400, -74.315
1546.7440, -72.837
1546.7480, -74.568
1546.7520, -74.220
1546.7560, -72.333
1546.7600, -74.307
1546.7640, -75.058
1546.7680, -74.575
1546.7720, -76.644
1546.7760, -74.553
1546.7800, -73.462
1546.7840, -73.127
1546.7880, -75.557
1546.7920, -74.769
1546.7960, -74.288
1546.8000, -74.990
1546.8040, -75.058
1546.8080, -75.719
1546.8120, -76.575
1546.8160, -74.399
1546.8200, -74.175
1546.8240, -75.024
1546.8280, -75.485
1546.8320, -73.974
1546.8360, -72.764
1546.8400, -73.865
1546.8440, -73.963
1546.8480, -76.264
1546.8520, -73.345
1546.8560, -74.902
1546.8600, -73.787
1546.8640, -75.471
1546.8680, -74.875
1546.8720, -74.618
1546.8760, -74.475
1546.8800, -73.873
1546.8840, -73.378
1546.8880, -73.104
1546.8920, -76.453
1546.8960, -76.187
1546.9000, -74.102
1546.9040, -73.463
1546.9080, -73.883
1546.9120, -76.254
1546.9160, -74.046
1546.9200, -74.800
1546.9240, -74.319
1546.9280, -74.843
1546.9320, -73.622
1546.9360, -76.366
1546.9400, -74.269
1546.9440, -74.759
1546.9480, -76.045
1546.9520, -74.675
1546.9560, -76.177
1546.9600, -72.820
1546.9640, -74.280
1546.9680, -73.906
1546.9720, -73.406
1546.9760, -75.315
1546.9800, -75.014
1546.9840, -73.201
1546.9880, -74.076
1546.9920, -74.426
1546.9960, -73.791
1547.0000, -73.802
1547.0040, -74.164
1547.0080, -73.322
1547.0120, -75.898
1547.0160, -74.810
1547.0200, -75.299
1547.0240, -73.940
1547.0280, -75.309
1547.0320, -73.049
1547.0360, -73.992
1547.0400, -75.389
1547.0440, -77.571
1547.0480, -74.148
1547.0520, -73.564
1547.0560, -74.903
1547.0600, -75.010
1547.0640, -74.780
1547.0680, -76.446
1547.0720, -73.252
1547.0760, -74.616
1547.0800, -75.161
1547.0840, -74.383
1547.0880, -76.796
1547.0920, -77.198
1547.0960, -75.244
1547.1000, -75.449
1547.1040, -74.457
1547.1080, -78.330
1547.1120, -75.164
1547.1160, -73.790
1547.1200, -75.425
1547.1240, -76.328
1547.1280, -76.208
1547.1320, -74.496
1547.1360, -74.568
1547.1400, -73.194
1547.1440, -74.787
1547.1480, -73.640
1547.1520, -74.740
1547.1560, -76.029
1547.1600, -76.126
1547.1640, -76.190
1547.1680, -76.234
1547.1720, -73.612
1547.1760, -73.678
1547.1800, -73.558
1547.1840, -73.505
1547.1880, -73.080
1547.1920, -73.658
1547.1960, -74.883
1547.2000, -74.466
1547.2040, -77.827
1547.2080, -75.243
1547.2120, -73.321
1547.2160, -74.661
1547.2200, -74.164
1547.2240, -74.728
1547.2280, -77.888
1547.2320, -74.361
1547.2360, -76.540
1547.2400, -74.478
1547.2440, -74.525
1547.2480, -74.090
1547.2520, -78.025
1547.2560, -76.392
1547.2600, -74.501
1547.2640, -75.177
1547.2680, -73.965
1547.2720, -72.815
1547.2760, -73.728
1547.2800, -76.036
1547.2840, -75.940
1547.2880, -75.904
1547.2920, -73.750
1547.2960, -73.776
1547.3000, -74.470
1547.3040, -74.418
1547.3080, -73.274
1547.3120, -73.743
1547.3160, -73.650
1547.3200, -73.927
1547.3240, -72.909
1547.3280, -73.397
1547.3320, -75.247
1547.3360, -75.467
1547.3400, -72.694
1547.3440, -72.782
1547.3480, -75.109
1547.3520, -76.017
1547.3560, -74.062
1547.3600, -74.104
1547.3640, -73.636
1547.3680, -75.883
1547.3720, -75.941
1547.3760, -75.383
1547.3800, -73.825
1547.3840, -74.787
1547.3880, -73.784
1547.3920, -74.857
1547.3960, -74.244
1547.4000, -74.261
1547.4040, -73.981
1547.4080, -74.793
1547.4120, -73.812
1547.4160, -76.532
1547.4200, -74.698
1547.4240, -77.128
1547.4280, -76.238
1547.4320, -73.787
1547.4360, -74.686
1547.4400, -74.605
1547.4440, -72.894
1547.4480, -76.089
1547.4520, -75.270
1547.4560, -72.968
1547.4600, -73.906
1547.4640, -74.489
1547.4680, -74.634
1547.4720, -73.206
1547.4760, -74.703
1547.4800, -73.097
1547.4840, -75.957
1547.4880, -74.942
1547.4920, -74.507
1547.4960, -74.332
1547.5000, -75.424
1547.5040, -76.830
1547.5080, -75.877
1547.5120, -73.212
1547.5160, -74.393
1547.5200, -77.179
1547.5240, -74.472
1547.5280, -73.907
1547.5320, -77.334
1547.5360, -74.964
1547.5400, -74.847
1547.5440, -74.441
1547.5480, -76.880
1547.5520, -73.710
1547.5560, -73.630
1547.5600, -74.849
1547.5640, -74.386
1547.5680, -73.967
1547.5720, -73.258
1547.5760, -76.038
1547.5800, -74.007
1547.5840, -74.825
1547.5880, -74.167
1547.5920, -73.566
1547.5960, -73.173
1547.6000, -74.337
1547.6040, -73.991
1547.6080, -73.596
1547.6120, -74.238
1547.6160, -73.751
1547.6200, -79.097
1547.6240, -75.331
1547.6280, -77.108
1547.6320, -74.920
1547.6360, -74.947
1547.6400, -75.993
1547.6440, -75.746
1547.6480, -75.290
1547.6520, -74.640
1547.6560, -74.972
1547.6600, -73.835
1547.6640, -76.101
1547.6680, -75.249
1547.6720, -74.449
1547.6760, -74.996
1547.6800, -74.800
1547.6840, -79.976
1547.6880, -75.866
1547.6920, -75.103
1547.6960, -77.622
1547.7000, -75.088
1547.7040, -74.206
1547.7080, -76.181
1547.7120, -73.139
1547.7160, -74.403
1547.7200, -74.622
1547.7240, -76.212
1547.7280, -76.783
1547.7320, -74.946
1547.7360, -74.784
1547.7400, -78.315
1547.7440, -77.313
1547.7480, -77.619
1547.7520, -75.222
1547.7560, -76.145
1547.7600, -76.993
1547.7640, -75.269
1547.7680, -74.466
1547.7720, -76.974
1547.7760, -74.631
1547.7800, -73.188
1547.7840, -75.761
1547.7880, -73.731
1547.7920, -75.923
1547.7960, -74.279
1547.8000, -75.101
1547.8040, -75.136
1547.8080, -74.299
1547.8120, -77.004
1547.8160, -79.213
1547.8200, -73.531
1547.8240, -76.289
1547.8280, -77.005
1547.8320, -73.523
1547.8360, -72.915
1547.8400, -77.421
1547.8440, -76.923
1547.8480, -76.374
1547.8520, -73.667
1547.8560, -74.506
1547.8600, -74.185
1547.8640, -74.626
1547.8680, -75.442
1547.8720, -76.602
1547.8760, -75.612
1547.8800, -76.255
1547.8840, -75.167
1547.8880, -75.133
1547.8920, -75.464
1547.8960, -74.089
1547.9000, -73.880
1547.9040, -75.444
1547.9080, -75.403
1547.9120, -74.022
1547.9160, -75.110
1547.9200, -75.578
1547.9240, -74.109
1547.9280, -77.244
1547.9320, -74.043
1547.9360, -74.543
1547.9400, -78.342
1547.9440, -74.327
1547.9480, -77.110
1547.9520, -77.335
1547.9560, -74.096
1547.9600, -75.711
1547.9640, -74.672
1547.9680, -74.820
1547.9720, -74.299
1547.9760, -73.636
1547.9800, -78.013
1547.9840, -76.415
1547.9880, -76.172
1547.9920, -75.530
1547.9960, -74.578
1548.0000, -75.692
1548.0040, -73.975
1548.0080, -76.127
1548.0120, -74.554
1548.0160, -77.014
1548.0200, -73.519
1548.0240, -73.502
1548.0280, -75.692
1548.0320, -75.426
1548.0360, -75.660
1548.0400, -75.254
1548.0440, -76.747
1548.0480, -78.913
1548.0520, -76.491
1548.0560, -74.347
1548.0600, -74.521
1548.0640, -75.635
1548.0680, -76.253
1548.0720, -73.959
1548.0760, -73.978
1548.0800, -76.618
1548.0840, -73.682
1548.0880, -72.161
1548.0920, -76.417
1548.0960, -73.033
1548.1000, -73.361
1548.1040, -75.378
1548.1080, -76.468
1548.1120, -75.489
1548.1160, -74.124
1548.1200, -74.700
1548.1240, -75.764
1548.1280, -75.357
1548.1320, -74.001
1548.1360, -74.819
1548.1400, -74.569
1548.1440, -73.590
1548.1480, -73.741
1548.1520, -75.249
1548.1560, -76.193
1548.1600, -74.278
1548.1640, -75.214
1548.1680, -74.503
1548.1720, -73.569
1548.1760, -73.660
1548.1800, -75.083
1548.1840, -74.022
1548.1880, -75.529
1548.1920, -74.505
1548.1960, -73.104
1548.2000, -74.311
1548.2040, -73.457
1548.2080, -72.375
1548.2120, -73.809
1548.2160, -75.906
1548.2200, -74.464
1548.2240, -76.641
1548.2280, -76.176
1548.2320, -74.016
1548.2360, -76.475
1548.2400, -75.191
1548.2440, -75.903
1548.2480, -73.943
1548.2520, -74.997
1548.2560, -73.622
1548.2600, -76.350
1548.2640, -75.092
1548.2680, -75.185
1548.2720, -75.209
1548.2760, -76.113
1548.2800, -75.998
1548.2840, -73.850
1548.2880, -73.766
1548.2920, -74.172
1548.2960, -73.779
1548.3000, -75.101
1548.3040, -76.347
1548.3080, -73.437
1548.3120, -74.350
1548.3160, -73.810
1548.3200, -76.119
1548.3240, -75.119
1548.3280, -73.115
1548.3320, -73.196
1548.3360, -73.660
1548.3400, -74.166
1548.3440, -73.142
1548.3480, -75.656
1548.3520, -75.314
1548.3560, -76.133
1548.3600, -75.693
1548.3640, -76.107
1548.3680, -73.739
1548.3720, -75.334
1548.3760, -75.224
1548.3800, -75.289
1548.3840, -75.311
1548.3880, -73.353
1548.3920, -73.947
1548.3960, -74.374
1548.4000, -75.116
1548.4040, -73.529
1548.4080, -75.006
1548.4120, -74.113
1548.4160, -74.261
1548.4200, -74.906
1548.4240, -73.350
1548.4280, -74.603
1548.4320, -73.843
1548.4360, -73.641
1548.4400, -76.741
1548.4440, -75.719
1548.4480, -74.988
1548.4520, -73.503
1548.4560, -74.677
1548.4600, -75.122
1548.4640, -73.966
1548.4680, -77.026
1548.4720, -74.132
1548.4760, -74.132
1548.4800, -75.541
1548.4840, -72.393
1548.4880, -73.452
1548.4920, -73.742
1548.4960, -74.279
1548.5000, -75.639
1548.5040, -77.908
1548.5080, -77.132
1548.5120, -74.747
1548.5160, -74.088
1548.5200, -76.653
1548.5240, -73.097
1548.5280, -74.825
1548.5320, -74.645
1548.5360, -74.173
1548.5400, -73.635
1548.5440, -73.800
1548.5480, -74.345
1548.5520, -74.047
1548.5560, -76.568
1548.5600, -73.734
1548.5640, -75.919
1548.5680, -74.566
1548.5720, -74.585
1548.5760, -74.716
1548.5800, -73.681
1548.5840, -74.786
1548.5880, -76.372
1548.5920, -75.052
1548.5960, -74.719
1548.6000, -73.653
1548.6040, -72.564
1548.6080, -74.463
1548.6120, -74.910
1548.6160, -73.071
1548.6200, -74.129
1548.6240, -74.145
1548.6280, -72.591
1548.6320, -74.502
1548.6360, -73.686
1548.6400, -75.725
1548.6440, -72.380
1548.6480, -76.083
1548.6520, -75.846
1548.6560, -73.385
1548.6600, -77.773
1548.6640, -74.540
1548.6680, -72.862
1548.6720, -73.323
1548.6760, -73.122
1548.6800, -72.971
1548.6840, -73.853
1548.6880, -74.694
1548.6920, -75.779
1548.6960, -75.770
1548.7000, -73.269
1548.7040, -74.964
1548.7080, -74.488
1548.7120, -73.997
1548.7160, -74.603
1548.7200, -74.875
1548.7240, -73.564
1548.7280, -78.877
1548.7320, -75.098
1548.7360, -76.311
1548.7400, -75.314
1548.7440, -75.254
1548.7480, -79.815
1548.7520, -76.079
1548.7560, -73.742
1548.7600, -74.424
1548.7640, -75.091
1548.7680, -72.954
1548.7720, -73.071
1548.7760, -75.600
1548.7800, -75.365
1548.7840, -74.586
1548.7880, -74.131
1548.7920, -75.021
1548.7960, -74.686
1548.8000, -74.656
1548.8040, -73.498
1548.8080, -73.749
1548.8120, -73.501
1548.8160, -74.307
1548.8200, -73.408
1548.8240, -72.522
1548.8280, -74.669
1548.8320, -73.533
1548.8360, -75.794
1548.8400, -75.635
1548.8440, -76.441
1548.8480, -73.299
1548.8520, -72.426
1548.8560, -74.642
1548.8600, -74.010
1548.8640, -72.382
1548.8680, -73.706
1548.8720, -75.815
1548.8760, -81.674
1548.8800, -76.693
1548.8840, -75.842
1548.8880, -73.649
1548.8920, -74.805
1548.8960, -73.399
1548.9000, -73.603
1548.9040, -74.722
1548.9080, -76.492
1548.9120, -75.199
1548.9160, -74.187
1548.9200, -72.383
1548.9240, -74.544
1548.9280, -74.359
1548.9320, -73.827
1548.9360, -74.521
1548.9400, -75.280
1548.9440, -72.976
1548.9480, -72.388
1548.9520, -74.260
1548.9560, -73.874
1548.9600, -73.221
1548.9640, -74.022
1548.9680, -72.316
1548.9720, -76.606
1548.9760, -75.658
1548.9800, -74.154
1548.9840, -73.201
1548.9880, -74.109
1548.9920, -74.790
1548.9960, -74.024
1549.0000, -74.215
1549.0040, -74.741
1549.0080, -74.275
1549.0120, -74.724
1549.0160, -74.559
1549.0200, -73.423
1549.0240, -72.949
1549.0280, -74.629
1549.0320, -74.995
1549.0360, -74.681
1549.0400, -76.620
1549.0440, -76.445
1549.0480, -78.135
1549.0520, -75.899
1549.0560, -75.977
1549.0600, -84.426
1549.0640,-210.000
1549.0680, -76.164
1549.0720, -78.452
1549.0760, -77.046
1549.0800, -76.140
1549.0840, -75.836
1549.0880, -78.101
1549.0920, -77.504
1549.0960, -72.765
1549.1000, -77.515
1549.1040, -75.557
1549.1080, -75.081
1549.1120, -79.748
1549.1160, -75.290
1549.1200, -78.652
1549.1240, -74.445
1549.1280, -76.207
1549.1320, -74.880
1549.1360, -76.661
1549.1400, -80.372
1549.1440, -76.304
1549.1480, -78.460
1549.1520, -78.583
1549.1560, -79.676
1549.1600, -79.866
1549.1640, -79.123
1549.1680, -88.604
1549.1720, -85.198
1549.1760, -78.811
1549.1800, -78.943
1549.1840,-210.000
1549.1880, -79.380
1549.1920, -80.661
1549.1960, -76.452
1549.2000, -77.128
1549.2040, -76.649
1549.2080, -76.136
1549.2120, -87.097
1549.2160, -76.222
1549.2200, -80.579
1549.2240, -90.837
1549.2280, -78.265
1549.2320, -77.458
1549.2360, -87.685
1549.2400, -79.181
1549.2440, -78.518
1549.2480, -79.755
1549.2520, -79.661
1549.2560, -91.503
1549.2600, -78.048
1549.2640, -73.590
1549.2680, -80.052
1549.2720, -82.041
1549.2760, -79.324
1549.2800, -77.923
1549.2840, -76.022
1549.2880, -79.068
1549.2920, -84.321
1549.2960,-210.000
1549.3000,-210.000
1549.3040,-210.000
1549.3080, -78.521
1549.3120, -83.832
1549.3160, -78.642
1549.3200, -89.054
1549.3240, -80.980
1549.3280, -79.460
1549.3320, -75.981
1549.3360, -78.491
1549.3400,-210.000
1549.3440, -77.035
1549.3480, -81.352
1549.3520, -77.518
1549.3560,-210.000
1549.3600, -77.585
1549.3640, -75.131
1549.3680, -83.943
1549.3720, -77.007
1549.3760, -74.122
1549.3800, -76.910
1549.3840, -81.219
1549.3880, -83.664
1549.3920, -75.802
1549.3960, -78.481
1549.4000, -81.060
1549.4040, -76.418
1549.4080, -76.790
1549.4120, -76.569
1549.4160, -86.028
1549.4200,-210.000
1549.4240, -77.850
1549.4280, -82.903
1549.4320, -78.680
1549.4360, -79.620
1549.4400, -74.436
1549.4440, -84.767
1549.4480, -83.558
1549.4520, -77.399
1549.4560, -75.676
1549.4600, -76.936
1549.4640, -85.734
1549.4680,-210.000
1549.4720, -78.224
1549.4760, -77.493
1549.4800, -81.517
1549.4840, -76.288
1549.4880, -75.982
1549.4920, -76.198
1549.4960, -77.898
1549.5000, -76.331
1549.5040, -78.902
1549.5080, -82.396
1549.5120, -81.005
1549.5160, -75.925
1549.5200, -75.148
1549.5240, -75.974
1549.5280, -75.499
1549.5320, -74.566
1549.5360, -74.650
1549.5400, -79.502
1549.5440, -75.795
1549.5480, -72.868
1549.5520, -76.425
1549.5560, -77.181
1549.5600, -75.094
1549.5640,-210.000
1549.5680, -79.521
1549.5720, -76.256
1549.5760, -75.800
1549.5800, -79.579
1549.5840, -76.467
1549.5880, -75.934
1549.5920, -76.749
1549.5960, -73.421
1549.6000, -76.251
1549.6040, -74.854
1549.6080, -78.042
1549.6120, -81.777
1549.6160, -75.175
1549.6200, -74.400
1549.6240, -74.368
1549.6280, -74.126
1549.6320, -74.745
1549.6360, -74.427
1549.6400, -74.400
1549.6440, -74.813
1549.6480, -73.900
1549.6520, -74.790
1549.6560, -75.024
1549.6600, -73.497
1549.6640, -74.562
1549.6680, -74.086
1549.6720, -75.056
1549.6760, -75.619
1549.6800, -73.730
1549.6840, -75.898
1549.6880, -74.868
1549.6920, -73.826
1549.6960, -74.238
1549.7000, -74.416
1549.7040, -73.081
1549.7080, -72.535
1549.7120, -73.430
1549.7160, -74.194
1549.7200, -74.307
1549.7240, -72.729
1549.7280, -73.549
1549.7320, -73.729
1549.7360, -75.968
1549.7400, -75.121
1549.7440, -73.972
1549.7480, -75.322
1549.7520, -75.193
1549.7560, -72.795
1549.7600, -75.191
1549.7640, -73.750
1549.7680, -72.770
1549.7720, -74.000
1549.7760, -73.211
1549.7800, -73.349
1549.7840, -73.110
1549.7880, -72.702
1549.7920, -72.510
1549.7960, -73.278
1549.8000, -72.422
1549.8040, -74.220
1549.8080, -74.755
1549.8120, -75.004
1549.8160, -73.366
1549.8200, -73.293
1549.8240, -72.996
1549.8280, -74.783
1549.8320, -72.907
1549.8360, -72.487
1549.8400, -73.498
1549.8440, -72.624
1549.8480, -73.671
1549.8520, -72.621
1549.8560, -73.230
1549.8600, -72.610
1549.8640, -74.390
1549.8680, -72.724
1549.8720, -73.105
1549.8760, -73.224
1549.8800, -76.755
1549.8840, -73.051
1549.8880, -74.566
1549.8920, -75.239
1549.8960, -74.741
1549.9000, -72.505
1549.9040, -74.010
1549.9080, -76.141
1549.9120, -73.326
1549.9160, -75.212
1549.9200, -73.566
1549.9240, -75.042
1549.9280, -74.373
1549.9320, -73.605
1549.9360, -74.219
1549.9400, -74.430
1549.9440, -73.655
1549.9480, -77.131
1549.9520, -73.399
1549.9560, -75.881
1549.9600, -73.306
1549.9640, -77.111
1549.9680, -74.653
1549.9720, -73.827
1549.9760, -74.171
1549.9800, -73.713
1549.9840, -73.366
1549.9880, -75.666
1549.9920, -76.850
1549.9960, -75.742
1550.0000, -74.459
1550.0040, -73.887
1550.0080, -76.316
1550.0120, -74.846
1550.0160, -73.439
1550.0200, -73.480
1550.0240, -73.181
1550.0280, -73.742
1550.0320, -74.256
1550.0360, -74.951
1550.0400, -74.492
1550.0440, -74.536
1550.0480, -73.963
1550.0520, -76.994
1550.0560, -75.340
1550.0600, -75.174
1550.0640, -74.754
1550.0680, -73.667
1550.0720, -72.144
1550.0760, -75.330
1550.0800, -73.877
1550.0840, -75.765
1550.0880, -74.659
1550.0920, -76.059
1550.0960, -75.794
1550.1000, -73.829
1550.1040, -75.902
1550.1080, -75.299
1550.1120, -73.376
1550.1160, -72.416
1550.1200, -72.211
1550.1240, -74.405
1550.1280, -73.539
1550.1320, -74.291
1550.1360, -73.667
1550.1400, -76.133
1550.1440, -73.941
1550.1480, -76.043
1550.1520, -75.638
1550.1560, -73.463
1550.1600, -74.342
1550.1640, -76.553
1550.1680, -74.740
1550.1720, -76.220
1550.1760, -73.673
1550.1800, -77.760
1550.1840, -74.708
1550.1880, -75.238
1550.1920, -74.929
1550.1960, -76.748
1550.2000, -75.609
1550.2040, -75.630
1550.2080, -74.229
1550.2120, -76.920
1550.2160, -74.466
1550.2200, -77.430
1550.2240, -74.970
1550.2280, -73.814
1550.2320, -73.732
1550.2360, -74.621
1550.2400, -73.883
1550.2440, -74.295
1550.2480, -72.696
1550.2520, -74.470
1550.2560, -73.954
1550.2600, -73.744
1550.2640, -73.742
1550.2680, -74.746
1550.2720, -74.999
1550.2760, -74.850
1550.2800, -74.937
1550.2840, -74.998
1550.2880, -73.713
1550.2920, -76.364
1550.2960, -75.286
1550.3000, -74.683
1550.3040, -76.805
1550.3080, -74.171
1550.3120, -74.248
1550.3160, -75.083
1550.3200, -75.442
1550.3240, -76.194
1550.3280, -73.672
1550.3320, -73.055
1550.3360, -73.446
1550.3400, -73.006
1550.3440, -74.993
1550.3480, -75.933
1550.3520, -74.745
1550.3560, -73.737
1550.3600, -72.146
1550.3640, -73.940
1550.3680, -74.682
1550.3720, -75.693
1550.3760, -74.638
1550.3800, -80.788
1550.3840, -74.322
1550.3880, -74.502
1550.3920, -74.863
1550.3960, -76.213
1550.4000, -74.779
1550.4040, -76.280
1550.4080, -73.369
1550.4120, -75.547
1550.4160, -75.542
1550.4200, -77.776
1550.4240, -74.553
1550.4280, -74.215
1550.4320, -74.454
1550.4360, -75.167
1550.4400, -73.461
1550.4440, -75.836
1550.4480, -74.174
1550.4520, -73.735
1550.4560, -72.807
1550.4600, -72.532
1550.4640, -73.151
1550.4680, -73.725
1550.4720, -75.662
1550.4760, -77.378
1550.4800, -74.041
1550.4840, -72.587
1550.4880, -73.811
1550.4920, -77.062
1550.4960, -73.917
1550.5000, -74.413
1550.5040, -74.575
1550.5080, -74.986
1550.5120, -73.232
1550.5160, -73.188
1550.5200, -75.906
1550.5240, -74.766
1550.5280, -74.345
1550.5320, -75.502
1550.5360, -74.819
1550.5400, -74.309
1550.5440, -75.517
1550.5480, -74.182
1550.5520, -75.396
1550.5560, -75.533
1550.5600, -74.402
1550.5640, -73.794
1550.5680, -74.114
1550.5720, -75.194
1550.5760, -75.004
1550.5800, -75.527
1550.5840, -73.777
1550.5880, -75.000
1550.5920,-210.000
1550.5960, -76.079
1550.6000, -74.153
1550.6040, -75.062
1550.6080, -72.688
1550.6120, -75.058
1550.6160, -74.780
1550.6200, -75.212
1550.6240, -74.696
1550.6280, -73.519
1550.6320, -73.645
1550.6360, -73.593
1550.6400, -73.206
1550.6440, -74.017
1550.6480, -74.306
1550.6520, -75.066
1550.6560, -74.113
1550.6600, -73.643
1550.6640, -74.571
1550.6680, -73.198
1550.6720, -76.920
1550.6760, -76.848
1550.6800, -74.118
1550.6840, -76.770
1550.6880, -75.371
1550.6920, -76.846
1550.6960, -74.216
1550.7000, -72.805
1550.7040, -74.133
1550.7080, -73.547
1550.7120, -74.588
1550.7160, -76.093
1550.7200, -74.778
1550.7240, -74.484
1550.7280, -80.385
1550.7320, -74.813
1550.7360, -74.586
1550.7400, -74.686
1550.7440, -72.971
1550.7480, -74.351
1550.7520, -73.776
1550.7560, -72.669
1550.7600, -75.042
1550.7640, -76.845
1550.7680, -74.714
1550.7720, -75.033
1550.7760, -73.157
1550.7800, -73.467
1550.7840, -75.015
1550.7880, -74.463
1550.7920, -72.996
1550.7960, -74.739
1550.8000, -73.325
1550.8040, -73.258
1550.8080, -74.846
1550.8120, -74.135
1550.8160, -74.333
1550.8200, -75.712
1550.8240, -73.291
1550.8280, -76.507
1550.8320, -73.924
1550.8360, -74.743
1550.8400, -74.656
1550.8440, -75.724
1550.8480, -74.795
1550.8520, -74.780
1550.8560, -73.897
1550.8600, -75.101
1550.8640, -73.648
1550.8680, -73.051
1550.8720, -75.144
1550.8760, -75.215
1550.8800, -74.772
1550.8840, -77.721
1550.8880, -75.019
1550.8920, -73.825
1550.8960, -73.792
1550.9000, -74.245
1550.9040, -74.464
1550.9080, -74.826
1550.9120, -73.872
1550.9160, -74.082
1550.9200, -77.542
1550.9240, -75.332
1550.9280, -75.716
1550.9320, -73.362
1550.9360, -75.451
1550.9400, -75.143
1550.9440, -72.997
1550.9480, -72.304
1550.9520, -76.264
1550.9560, -74.298
1550.9600, -73.909
1550.9640, -76.974
1550.9680, -73.018
1550.9720, -74.236
1550.9760, -72.933
1550.9800, -73.699
1550.9840, -73.449
1550.9880, -76.298
1550.9920, -72.731
1550.9960, -73.615
1551.0000, -74.261
1551.0040, -73.850
1551.0080, -73.016
1551.0120, -74.939
1551.0160, -73.471
1551.0200, -74.902
1551.0240, -74.212
1551.0280, -76.287
1551.0320, -74.439
1551.0360, -72.745
1551.0400, -75.440
1551.0440, -74.856
1551.0480, -74.083
1551.0520, -74.285
1551.0560, -73.727
1551.0600, -74.065
1551.0640, -74.567
1551.0680, -73.923
1551.0720, -74.473
1551.0760, -74.009
1551.0800, -74.801
1551.0840, -73.647
1551.0880, -73.802
1551.0920, -74.180
1551.0960, -75.087
1551.1000, -73.673
1551.1040, -75.085
1551.1080, -75.992
1551.1120, -74.907
1551.1160, -73.026
1551.1200, -73.927
1551.1240, -77.804
1551.1280, -74.471
1551.1320, -74.435
1551.1360, -74.906
1551.1400, -74.433
1551.1440, -73.820
1551.1480, -73.128
1551.1520, -74.714
1551.1560, -73.979
1551.1600, -72.734
1551.1640, -75.391
1551.1680, -74.007
1551.1720, -72.784
1551.1760, -73.003
1551.1800, -73.058
1551.1840, -73.522
1551.1880, -78.280
1551.1920, -72.780
1551.1960, -74.295
1551.2000, -73.267
1551.2040, -74.408
1551.2080, -74.150
1551.2120, -74.440
1551.2160, -74.167
1551.2200, -73.077
1551.2240, -75.123
1551.2280, -74.757
1551.2320, -73.359
1551.2360, -73.312
1551.2400, -72.650
1551.2440, -73.959
1551.2480, -72.977
1551.2520, -74.316
1551.2560, -74.792
1551.2600, -74.525
1551.2640, -73.474
1551.2680, -74.971
1551.2720, -74.189
1551.2760, -73.807
1551.2800, -74.116
1551.2840, -76.253
1551.2880, -73.469
1551.2920, -73.744
1551.2960, -73.720
1551.3000, -74.200
1551.3040, -73.565
1551.3080, -74.236
1551.3120, -75.445
1551.3160, -74.688
1551.3200, -74.819
1551.3240, -73.276
1551.3280, -72.126
1551.3320, -74.783
1551.3360, -73.513
1551.3400, -73.938
1551.3440, -73.531
1551.3480, -75.707
1551.3520, -75.374
1551.3560, -74.577
1551.3600, -73.377
1551.3640, -74.273
1551.3680, -75.789
1551.3720, -76.840
1551.3760, -76.364
1551.3800, -74.607
1551.3840, -74.167
1551.3880, -74.196
1551.3920, -74.252
1551.3960, -76.072
1551.4000, -73.471
1551.4040, -73.276
1551.4080, -72.524
1551.4120, -73.472
1551.4160, -75.184
1551.4200, -75.566
1551.4240, -73.895
1551.4280, -72.931
1551.4320, -73.357
1551.4360, -73.819
1551.4400, -73.324
1551.4440, -73.615
1551.4480, -74.018
1551.4520, -73.166
1551.4560, -74.137
1551.4600, -73.970
1551.4640, -74.984
1551.4680, -73.688
1551.4720, -73.670
1551.4760, -76.167
1551.4800, -74.247
1551.4840, -75.925
1551.4880, -73.400
1551.4920, -75.913
1551.4960, -75.263
1551.5000, -74.459
1551.5040, -72.357
1551.5080, -73.250
1551.5120, -74.330
1551.5160, -72.869
1551.5200, -74.516
1551.5240, -74.160
1551.5280, -77.360
1551.5320, -76.877
1551.5360, -75.262
1551.5400, -73.947
1551.5440, -77.238
1551.5480, -75.249
1551.5520, -73.726
1551.5560, -73.085
1551.5600, -74.505
1551.5640, -73.309
1551.5680, -75.300
1551.5720, -73.240
1551.5760, -73.345
1551.5800, -77.770
1551.5840, -73.021
1551.5880, -73.675
1551.5920, -73.902
1551.5960, -73.016
1551.6000, -74.683
1551.6040, -73.684
1551.6080, -75.258
1551.6120, -74.061
1551.6160, -73.267
1551.6200, -75.549
1551.6240, -76.584
1551.6280, -77.764
1551.6320, -73.825
1551.6360, -73.844
1551.6400, -74.517
1551.6440, -75.044
1551.6480, -75.723
1551.6520, -73.540
1551.6560, -73.481
1551.6600, -74.344
1551.6640, -74.965
1551.6680, -73.658
1551.6720, -77.734
1551.6760, -75.138
1551.6800, -75.663
1551.6840, -73.266
1551.6880, -75.106
1551.6920, -75.180
1551.6960, -76.295
1551.7000, -73.792
1551.7040, -74.393
1551.7080, -76.900
1551.7120, -73.290
1551.7160, -74.670
1551.7200, -76.858
1551.7240, -74.828
1551.7280, -74.348
1551.7320, -73.476
1551.7360, -73.508
1551.7400, -74.040
1551.7440, -73.688
1551.7480, -76.711
1551.7520, -72.828
1551.7560, -75.928
1551.7600, -74.279
1551.7640, -74.343
1551.7680, -77.184
1551.7720, -74.178
1551.7760, -76.678
1551.7800, -74.246
1551.7840, -75.531
1551.7880, -74.873
1551.7920, -73.230
1551.7960, -73.907
1551.8000, -73.368
1551.8040, -74.687
1551.8080, -76.059
1551.8120, -73.273
1551.8160, -74.010
1551.8200, -74.589
1551.8240, -75.145
1551.8280, -76.176
1551.8320, -76.760
1551.8360, -74.628
1551.8400, -74.283
1551.8440, -74.670
1551.8480, -73.006
1551.8520, -73.967
1551.8560, -74.055
1551.8600, -73.624
1551.8640, -72.917
1551.8680, -74.267
1551.8720, -73.760
1551.8760, -73.655
1551.8800, -74.101
1551.8840, -72.537
1551.8880, -72.993
1551.8920, -73.565
1551.8960, -74.648
1551.9000, -74.607
1551.9040, -74.149
1551.9080, -73.458
1551.9120, -75.761
1551.9160, -72.989
1551.9200, -72.999
1551.9240, -75.074
1551.9280, -74.925
1551.9320, -73.713
1551.9360, -73.035
1551.9400, -75.156
1551.9440, -76.572
1551.9480, -75.614
1551.9520, -73.991
1551.9560, -73.216
1551.9600, -73.352
1551.9640, -73.382
1551.9680, -73.348
1551.9720, -73.355
1551.9760, -72.646
1551.9800, -73.537
1551.9840, -74.682
1551.9880, -74.895
1551.9920, -74.504
1551.9960, -74.562
1552.0000, -72.800
1552.0040, -74.937
1552.0080, -75.905
1552.0120, -73.427
1552.0160, -73.768
1552.0200, -75.181
1552.0240, -73.778
1552.0280, -73.397
1552.0320, -76.023
1552.0360, -77.426
1552.0400, -74.562
1552.0440, -75.002
1552.0480, -74.265
1552.0520, -75.756
1552.0560, -73.549
1552.0600, -72.841
1552.0640, -74.797
1552.0680, -74.258
1552.0720, -72.744
1552.0760, -73.883
1552.0800, -74.095
1552.0840, -73.280
1552.0880, -74.649
1552.0920, -73.913
1552.0960, -73.375
1552.1000, -74.528
1552.1040, -74.771
1552.1080, -74.721
1552.1120, -75.043
1552.1160, -74.530
1552.1200, -73.739
1552.1240, -74.491
1552.1280, -75.690
1552.1320, -74.302
1552.1360, -74.161
1552.1400, -73.942
1552.1440, -73.697
1552.1480, -73.555
1552.1520, -74.173
1552.1560, -74.496
1552.1600, -75.228
1552.1640, -74.067
1552.1680, -73.000
1552.1720, -74.805
1552.1760, -73.666
1552.1800, -76.582
1552.1840, -73.240
1552.1880, -74.054
1552.1920, -75.952
1552.1960, -74.942
1552.2000, -75.459
1552.2040, -74.494
1552.2080, -74.580
1552.2120, -75.572
1552.2160, -74.495
1552.2200, -73.867
1552.2240, -73.679
1552.2280, -73.827
1552.2320, -75.213
1552.2360, -74.758
1552.2400, -76.007
1552.2440, -73.922
1552.2480, -74.928
1552.2520, -74.821
1552.2560, -75.906
1552.2600, -72.967
1552.2640, -72.865
1552.2680, -72.399
1552.2720, -74.031
1552.2760, -74.200
1552.2800, -74.645
1552.2840, -75.982
1552.2880, -74.386
1552.2920, -75.741
1552.2960, -75.763
1552.3000, -73.908
1552.3040, -72.559
1552.3080, -75.574
1552.3120, -74.204
1552.3160, -73.279
1552.3200, -76.342
1552.3240, -74.235
1552.3280, -73.925
1552.3320, -72.786
1552.3360, -76.434
1552.3400, -74.656
1552.3440, -77.349
1552.3480, -73.720
1552.3520, -73.053
1552.3560, -75.176
1552.3600, -74.371
1552.3640, -74.715
1552.3680, -76.491
1552.3720, -75.996
1552.3760, -75.205
1552.3800, -73.145
1552.3840, -74.233
1552.3880, -72.589
1552.3920, -73.276
1552.3960, -73.132
1552.4000, -74.819
1552.4040, -74.175
1552.4080, -73.486
1552.4120, -75.886
1552.4160, -73.749
1552.4200, -74.479
1552.4240, -74.549
1552.4280, -75.794
1552.4320, -72.616
1552.4360, -74.213
1552.4400, -74.451
1552.4440, -74.994
1552.4480, -73.446
1552.4520, -73.795
1552.4560, -75.842
1552.4600, -71.782
1552.4640, -77.093
1552.4680, -75.145
1552.4720, -73.698
1552.4760, -75.235
1552.4800, -76.284
1552.4840, -78.129
1552.4880, -76.274
1552.4920, -74.853
1552.4960, -72.908
1552.5000, -73.001
1552.5040, -73.075
1552.5080, -75.018
1552.5120, -72.739
1552.5160, -75.734
1552.5200, -74.339
1552.5240, -72.957
1552.5280, -73.852
1552.5320, -74.107
1552.5360, -74.146
1552.5400, -74.746
1552.5440, -73.997
1552.5480, -74.210
1552.5520, -74.297
1552.5560, -76.654
1552.5600, -74.402
1552.5640, -72.907
1552.5680, -73.330
1552.5720, -76.517
1552.5760, -75.612
1552.5800, -75.170
1552.5840, -76.767
1552.5880, -75.811
1552.5920, -74.390
1552.5960, -72.511
1552.6000, -73.209
1552.6040, -75.748
1552.6080, -77.617
1552.6120, -74.452
1552.6160, -74.476
1552.6200, -73.236
1552.6240, -73.970
1552.6280, -73.197
1552.6320, -74.634
1552.6360, -73.505
1552.6400, -72.465
1552.6440, -73.455
1552.6480, -73.651
1552.6520, -73.518
1552.6560, -73.813
1552.6600, -74.282
1552.6640, -76.077
1552.6680, -75.790
1552.6720, -74.580
1552.6760, -74.132
1552.6800, -73.988
1552.6840, -75.111
1552.6880, -75.054
1552.6920, -75.613
1552.6960, -74.189
1552.7000, -73.469
1552.7040, -74.307
1552.7080, -76.616
1552.7120, -75.019
1552.7160, -76.171
1552.7200, -74.115
1552.7240, -75.321
1552.7280, -75.407
1552.7320, -76.148
1552.7360, -74.963
1552.7400, -72.870
1552.7440, -74.311
1552.7480, -74.482
1552.7520, -72.933
1552.7560, -74.137
1552.7600, -75.228
1552.7640, -75.267
1552.7680, -73.907
1552.7720, -73.206
1552.7760, -75.802
1552.7800, -73.051
1552.7840, -74.162
1552.7880, -76.109
1552.7920, -75.602
1552.7960, -72.789
1552.8000, -74.077
1552.8040, -73.607
1552.8080, -74.252
1552.8120, -74.109
1552.8160, -76.019
1552.8200, -74.365
1552.8240, -75.058
1552.8280, -73.845
1552.8320, -77.565
1552.8360, -74.953
1552.8400, -74.196
1552.8440, -75.282
1552.8480, -74.261
1552.8520, -75.204
1552.8560, -73.967
1552.8600, -73.872
1552.8640, -72.952
1552.8680, -77.824
1552.8720, -75.305
1552.8760, -75.194
1552.8800, -73.948
1552.8840, -75.260
1552.8880, -74.486
1552.8920, -73.884
1552.8960, -73.611
1552.9000, -75.621
1552.9040, -75.949
1552.9080, -77.882
1552.9120, -76.901
1552.9160, -73.963
1552.9200, -73.596
1552.9240, -75.569
1552.9280, -73.334
1552.9320, -73.301
1552.9360, -73.721
1552.9400, -76.027
1552.9440, -76.302
1552.9480, -79.237
1552.9520, -74.927
1552.9560, -74.873
1552.9600, -79.055
1552.9640, -73.439
1552.9680, -74.001
1552.9720, -72.335
1552.9760, -73.073
1552.9800, -74.719
1552.9840, -73.965
1552.9880, -74.893
1552.9920, -76.176
1552.9960, -76.298
1553.0000, -76.283
1553.0040, -74.661
1553.0080, -75.320
1553.0120, -74.210
1553.0160, -74.665
1553.0200, -75.534
1553.0240, -76.822
1553.0280, -74.091
1553.0320, -75.416
1553.0360, -74.632
1553.0400, -72.961
1553.0440, -75.757
1553.0480, -74.327
1553.0520, -73.471
1553.0560, -74.530
1553.0600, -75.591
1553.0640, -74.957
1553.0680, -74.472
1553.0720, -72.787
1553.0760, -73.562
1553.0800, -76.816
1553.0840, -73.139
1553.0880, -74.713
1553.0920, -74.515
1553.0960, -72.630
1553.1000, -75.240
1553.1040, -73.964
1553.1080, -74.357
1553.1120, -73.836
1553.1160, -74.129
1553.1200, -75.491
1553.1240, -74.843
1553.1280, -73.168
1553.1320, -74.500
1553.1360, -73.026
1553.1400, -76.906
1553.1440, -76.599
1553.1480, -74.097
1553.1520, -72.904
1553.1560, -76.405
1553.1600, -73.282
1553.1640, -73.413
1553.1680, -75.715
1553.1720, -72.583
1553.1760, -75.559
1553.1800, -74.434
1553.1840, -73.265
1553.1880, -74.085
1553.1920, -73.308
1553.1960, -73.536
1553.2000, -75.218
1553.2040, -75.165
1553.2080, -74.634
1553.2120, -77.571
1553.2160, -72.271
1553.2200, -73.732
1553.2240, -74.370
1553.2280, -75.641
1553.2320, -74.460
1553.2360, -76.045
1553.2400, -76.181
1553.2440, -74.417
1553.2480, -73.813
1553.2520, -73.317
1553.2560, -75.950
1553.2600, -73.201
1553.2640, -73.636
1553.2680, -74.134
1553.2720, -74.971
1553.2760, -75.248
1553.2800, -73.881
1553.2840, -73.732
1553.2880, -73.726
1553.2920, -75.995
1553.2960, -74.929
1553.3000, -73.761
1553.3040, -73.856
1553.3080, -74.054
1553.3120, -74.056
1553.3160, -74.675
1553.3200, -75.091
1553.3240, -75.563
1553.3280, -72.958
1553.3320, -72.866
1553.3360, -75.047
1553.3400, -74.945
1553.3440, -74.152
1553.3480, -74.192
1553.3520, -75.563
1553.3560, -76.073
1553.3600, -74.381
1553.3640, -75.086
1553.3680, -75.610
1553.3720, -75.371
1553.3760, -74.416
1553.3800, -73.820
1553.3840, -75.305
1553.3880, -74.468
1553.3920, -74.218
1553.3960, -74.217
1553.4000, -75.991
1553.4040, -74.827
1553.4080, -76.337
1553.4120, -73.657
1553.4160, -74.502
1553.4200, -73.967
1553.4240, -71.989
1553.4280, -76.011
1553.4320, -73.480
1553.4360, -74.369
1553.4400, -73.669
1553.4440, -72.855
1553.4480, -77.126
1553.4520, -74.094
1553.4560, -73.954
1553.4600, -75.037
1553.4640, -74.383
1553.4680, -76.749
1553.4720, -77.600
1553.4760, -72.867
1553.4800, -73.525
1553.4840, -73.821
1553.4880, -75.824
1553.4920, -75.684
1553.4960, -76.972
1553.5000, -74.478
