70BCSV 	
// AQ6370D OPTICAL SPECTRUM ANALYZER //                 
30
"CTRWL",1549.500000
"SPAN",   8.000000
"START WL",1545.500000
"STOP WL",1553.500000
"WLFREQ", 0
"REFL",-10.0
"LSCL",10.0
"RESLN",0.020
"AVG",   1
"SMPLAUTO",      1
"SMPL",       2001
"SMPLINTVL",0.0040
"MID"
"MEAS"
"LSUNT",0
"NMSKH","OFF"
"RESCOR",0
"SMOOTH",0
"FIBERTYPE",0
"MEASWL",0
"SWPSPD",1
"NEBWCAL0",    0
"NEBWCAL1",    0
"NEBWCALWL",   0
"RESPARM", 9838
"FREQPARM", 9838




"[TRACE DATA]"
1545.5000, -71.723
1545.5040, -72.308
1545.5080, -71.496
1545.5120, -71.934
1545.5160, -72.042
1545.5200, -72.048
1545.5240, -72.336
1545.5280, -72.544
1545.5320, -72.944
1545.5360, -72.733
1545.5400, -71.481
1545.5440, -71.374
1545.5480, -70.792
1545.5520, -72.142
1545.5560, -71.180
1545.5600, -71.993
1545.5640, -73.482
1545.5680, -72.120
1545.5720, -71.190
1545.5760, -71.969
1545.5800, -70.354
1545.5840, -72.719
1545.5880, -72.216
1545.5920, -72.182
1545.5960, -71.619
1545.6000, -72.368
1545.6040, -71.129
1545.6080, -71.554
1545.6120, -70.789
1545.6160, -72.628
1545.6200, -71.206
1545.6240, -72.143
1545.6280, -71.999
1545.6320, -71.426
1545.6360, -71.559
1545.6400, -71.714
1545.6440, -71.943
1545.6480, -72.435
1545.6520, -71.754
1545.6560, -71.962
1545.6600, -71.478
1545.6640, -71.555
1545.6680, -71.137
1545.6720, -72.111
1545.6760, -71.740
1545.6800, -72.368
1545.6840, -71.119
1545.6880, -72.608
1545.6920, -72.580
1545.6960, -73.350
1545.7000, -71.713
1545.7040, -71.848
1545.7080, -72.111
1545.7120, -72.043
1545.7160, -71.962
1545.7200, -72.372
1545.7240, -70.959
1545.7280, -71.113
1545.7320, -70.739
1545.7360, -72.627
1545.7400, -72.147
1545.7440, -71.536
1545.7480, -72.296
1545.7520, -71.436
1545.7560, -71.442
1545.7600, -72.500
1545.7640, -72.927
1545.7680, -71.619
1545.7720, -71.687
1545.7760, -71.068
1545.7800, -72.098
1545.7840, -71.399
1545.7880, -72.184
1545.7920, -72.559
1545.7960, -71.730
1545.8000, -71.718
1545.8040, -71.480
1545.8080, -71.946
1545.8120, -71.742
1545.8160, -71.819
1545.8200, -73.128
1545.8240, -73.304
1545.8280, -72.211
1545.8320, -72.180
1545.8360, -71.901
1545.8400, -70.995
1545.8440, -71.171
1545.8480, -72.772
1545.8520, -72.140
1545.8560, -72.648
1545.8600, -71.363
1545.8640, -73.633
1545.8680, -72.288
1545.8720, -71.622
1545.8760, -71.716
1545.8800, -71.359
1545.8840, -72.386
1545.8880, -71.524
1545.8920, -72.005
1545.8960, -72.240
1545.9000, -71.289
1545.9040, -71.232
1545.9080, -72.373
1545.9120, -71.761
1545.9160, -72.709
1545.9200, -72.365
1545.9240, -71.903
1545.9280, -72.276
1545.9320, -71.920
1545.9360, -71.646
1545.9400, -71.466
1545.9440, -71.512
1545.9480, -72.192
1545.9520, -72.096
1545.9560, -72.635
1545.9600, -71.414
1545.9640, -73.212
1545.9680, -71.096
1545.9720, -72.251
1545.9760, -72.814
1545.9800, -73.099
1545.9840, -71.191
1545.9880, -72.900
1545.9920, -72.413
1545.9960, -71.713
1546.0000, -71.956
1546.0040, -71.880
1546.0080, -70.440
1546.0120, -71.038
1546.0160, -71.251
1546.0200, -71.903
1546.0240, -72.453
1546.0280, -73.226
1546.0320, -72.079
1546.0360, -71.987
1546.0400, -71.794
1546.0440, -73.281
1546.0480, -72.789
1546.0520, -71.657
1546.0560, -72.885
1546.0600, -71.497
1546.0640, -71.871
1546.0680, -72.313
1546.0720, -71.780
1546.0760, -71.094
1546.0800, -70.896
1546.0840, -72.523
1546.0880, -72.260
1546.0920, -72.539
1546.0960, -74.541
1546.1000, -72.822
1546.1040, -71.653
1546.1080, -73.008
1546.1120, -71.744
1546.1160, -73.331
1546.1200, -72.962
1546.1240, -72.146
1546.1280, -72.368
1546.1320, -71.504
1546.1360, -72.755
1546.1400, -71.127
1546.1440, -71.585
1546.1480, -72.248
1546.1520, -72.029
1546.1560, -71.144
1546.1600, -72.079
1546.1640, -71.532
1546.1680, -72.149
1546.1720, -72.136
1546.1760, -71.940
1546.1800, -73.288
1546.1840, -70.926
1546.1880, -72.058
1546.1920, -71.409
1546.1960, -71.528
1546.2000, -72.703
1546.2040, -71.558
1546.2080, -71.079
1546.2120, -72.041
1546.2160, -71.378
1546.2200, -73.657
1546.2240, -72.646
1546.2280, -71.915
1546.2320, -72.246
1546.2360, -71.485
1546.2400, -70.996
1546.2440, -71.849
1546.2480, -71.850
1546.2520, -71.998
1546.2560, -72.158
1546.2600, -73.297
1546.2640, -71.237
1546.2680, -71.262
1546.2720, -72.407
1546.2760, -72.837
1546.2800, -71.572
1546.2840, -72.997
1546.2880, -71.955
1546.2920, -71.155
1546.2960, -71.954
1546.3000, -71.764
1546.3040, -71.348
1546.3080, -72.764
1546.3120, -70.876
1546.3160, -71.605
1546.3200, -71.645
1546.3240, -72.891
1546.3280, -72.348
1546.3320, -72.505
1546.3360, -72.458
1546.3400, -72.127
1546.3440, -73.309
1546.3480, -71.504
1546.3520, -71.624
1546.3560, -72.801
1546.3600, -71.958
1546.3640, -71.492
1546.3680, -70.842
1546.3720, -71.138
1546.3760, -72.091
1546.3800, -71.065
1546.3840, -72.473
1546.3880, -71.947
1546.3920, -71.507
1546.3960, -72.930
1546.4000, -71.765
1546.4040, -71.672
1546.4080, -71.202
1546.4120, -71.949
1546.4160, -71.279
1546.4200, -71.808
1546.4240, -72.444
1546.4280, -71.536
1546.4320, -71.439
1546.4360, -73.473
1546.4400, -71.843
1546.4440, -71.716
1546.4480, -70.926
1546.4520, -70.855
1546.4560, -71.730
1546.4600, -70.941
1546.4640, -71.918
1546.4680, -72.995
1546.4720, -72.195
1546.4760, -72.105
1546.4800, -71.911
1546.4840, -72.295
1546.4880, -72.846
1546.4920, -71.535
1546.4960, -70.961
1546.5000, -71.767
1546.5040, -73.085
1546.5080, -71.524
1546.5120, -71.982
1546.5160, -70.914
1546.5200, -70.760
1546.5240, -72.344
1546.5280, -72.553
1546.5320, -71.650
1546.5360, -72.619
1546.5400, -72.581
1546.5440, -72.564
1546.5480, -72.600
1546.5520, -72.364
1546.5560, -72.737
1546.5600, -71.238
1546.5640, -71.910
1546.5680, -73.011
1546.5720, -72.137
1546.5760, -73.129
1546.5800, -72.856
1546.5840, -72.976
1546.5880, -72.608
1546.5920, -72.202
1546.5960, -71.984
1546.6000, -72.236
1546.6040, -71.653
1546.6080, -73.319
1546.6120, -71.931
1546.6160, -71.764
1546.6200, -71.298
1546.6240, -72.094
1546.6280, -72.214
1546.6320, -72.820
1546.6360, -71.677
1546.6400, -72.057
1546.6440, -72.138
1546.6480, -72.114
1546.6520, -72.541
1546.6560, -71.966
1546.6600, -72.130
1546.6640, -72.447
1546.6680, -73.712
1546.6720, -71.776
1546.6760, -72.048
1546.6800, -72.243
1546.6840, -71.743
1546.6880, -72.765
1546.6920, -73.971
1546.6960, -72.189
1546.7000, -73.022
1546.7040, -71.449
1546.7080, -72.658
1546.7120, -72.540
1546.7160, -72.623
1546.7200, -73.102
1546.7240, -72.131
1546.7280, -71.814
1546.7320, -70.375
1546.7360, -72.131
1546.7400, -73.024
1546.7440, -71.462
1546.7480, -72.084
1546.7520, -72.376
1546.7560, -72.905
1546.7600, -72.051
1546.7640, -72.722
1546.7680, -71.571
1546.7720, -72.059
1546.7760, -71.074
1546.7800, -71.924
1546.7840, -71.739
1546.7880, -72.400
1546.7920, -72.475
1546.7960, -71.822
1546.8000, -72.718
1546.8040, -73.138
1546.8080, -72.054
1546.8120, -71.630
1546.8160, -72.052
1546.8200, -71.148
1546.8240, -73.574
1546.8280, -71.931
1546.8320, -71.395
1546.8360, -72.013
1546.8400, -71.477
1546.8440, -72.683
1546.8480, -72.385
1546.8520, -70.702
1546.8560, -71.484
1546.8600, -71.296
1546.8640, -72.189
1546.8680, -72.531
1546.8720, -71.887
1546.8760, -72.444
1546.8800, -71.664
1546.8840, -71.759
1546.8880, -71.495
1546.8920, -71.964
1546.8960, -71.205
1546.9000, -71.751
1546.9040, -71.746
1546.9080, -71.478
1546.9120, -72.918
1546.9160, -73.129
1546.9200, -72.015
1546.9240, -73.299
1546.9280, -71.558
1546.9320, -72.718
1546.9360, -72.126
1546.9400, -71.859
1546.9440, -72.480
1546.9480, -72.995
1546.9520, -72.406
1546.9560, -71.944
1546.9600, -71.677
1546.9640, -70.514
1546.9680, -70.933
1546.9720, -71.603
1546.9760, -72.149
1546.9800, -71.616
1546.9840, -72.669
1546.9880, -71.676
1546.9920, -72.394
1546.9960, -72.516
1547.0000, -71.435
1547.0040, -71.942
1547.0080, -72.282
1547.0120, -72.419
1547.0160, -71.858
1547.0200, -72.229
1547.0240, -71.760
1547.0280, -71.622
1547.0320, -72.337
1547.0360, -72.821
1547.0400, -72.260
1547.0440, -72.445
1547.0480, -72.067
1547.0520, -74.199
1547.0560, -72.118
1547.0600, -73.300
1547.0640, -72.764
1547.0680, -71.670
1547.0720, -72.610
1547.0760, -72.061
1547.0800, -71.731
1547.0840, -71.864
1547.0880, -72.300
1547.0920, -72.282
1547.0960, -72.578
1547.1000, -71.865
1547.1040, -72.368
1547.1080, -71.161
1547.1120, -71.790
1547.1160, -70.616
1547.1200, -71.200
1547.1240, -73.112
1547.1280, -71.437
1547.1320, -71.457
1547.1360, -72.107
1547.1400, -72.318
1547.1440, -72.145
1547.1480, -72.272
1547.1520, -72.420
1547.1560, -73.323
1547.1600, -71.149
1547.1640, -72.573
1547.1680, -72.420
1547.1720, -71.543
1547.1760, -71.925
1547.1800, -71.625
1547.1840, -71.835
1547.1880, -71.497
1547.1920, -74.232
1547.1960, -71.910
1547.2000, -72.017
1547.2040, -71.455
1547.2080, -71.526
1547.2120, -71.623
1547.2160, -71.544
1547.2200, -72.213
1547.2240, -71.217
1547.2280, -72.645
1547.2320, -72.195
1547.2360, -72.132
1547.2400, -73.668
1547.2440, -71.570
1547.2480, -72.101
1547.2520, -70.907
1547.2560, -71.860
1547.2600, -71.605
1547.2640, -73.125
1547.2680, -71.834
1547.2720, -71.808
1547.2760, -72.155
1547.2800, -72.134
1547.2840, -72.086
1547.2880, -71.760
1547.2920, -72.421
1547.2960, -72.129
1547.3000, -71.420
1547.3040, -72.399
1547.3080, -72.798
1547.3120, -72.243
1547.3160, -71.329
1547.3200, -71.722
1547.3240, -71.564
1547.3280, -71.075
1547.3320, -71.765
1547.3360, -71.557
1547.3400, -72.164
1547.3440, -72.113
1547.3480, -71.830
1547.3520, -71.788
1547.3560, -73.483
1547.3600, -71.486
1547.3640, -71.980
1547.3680, -72.567
1547.3720, -71.962
1547.3760, -72.972
1547.3800, -72.198
1547.3840, -71.339
1547.3880, -72.449
1547.3920, -71.298
1547.3960, -71.763
1547.4000, -71.819
1547.4040, -72.109
1547.4080, -71.531
1547.4120, -71.259
1547.4160, -72.357
1547.4200, -71.111
1547.4240, -71.500
1547.4280, -71.909
1547.4320, -72.241
1547.4360, -73.781
1547.4400, -71.639
1547.4440, -71.589
1547.4480, -72.781
1547.4520, -71.616
1547.4560, -73.245
1547.4600, -71.670
1547.4640, -72.422
1547.4680, -72.775
1547.4720, -72.314
1547.4760, -71.879
1547.4800, -71.979
1547.4840, -71.556
1547.4880, -72.490
1547.4920, -72.006
1547.4960, -72.861
1547.5000, -72.623
1547.5040, -72.456
1547.5080, -71.856
1547.5120, -71.748
1547.5160, -72.898
1547.5200, -71.907
1547.5240, -72.094
1547.5280, -72.043
1547.5320, -72.830
1547.5360, -72.169
1547.5400, -71.750
1547.5440, -72.495
1547.5480, -74.436
1547.5520, -71.237
1547.5560, -73.596
1547.5600, -73.441
1547.5640, -72.908
1547.5680, -72.095
1547.5720, -72.419
1547.5760, -73.355
1547.5800, -72.236
1547.5840, -71.475
1547.5880, -71.351
1547.5920, -73.121
1547.5960, -72.128
1547.6000, -73.161
1547.6040, -73.446
1547.6080, -72.003
1547.6120, -72.615
1547.6160, -73.762
1547.6200, -72.799
1547.6240, -71.394
1547.6280, -72.479
1547.6320, -71.951
1547.6360, -71.400
1547.6400, -72.574
1547.6440, -72.399
1547.6480, -73.268
1547.6520, -74.609
1547.6560, -72.645
1547.6600, -72.253
1547.6640, -71.395
1547.6680, -72.618
1547.6720, -73.292
1547.6760, -72.059
1547.6800, -72.996
1547.6840, -72.698
1547.6880, -71.966
1547.6920, -71.942
1547.6960, -72.559
1547.7000, -72.965
1547.7040, -72.478
1547.7080, -74.582
1547.7120, -72.879
1547.7160, -72.715
1547.7200, -72.327
1547.7240, -72.456
1547.7280, -72.102
1547.7320, -72.433
1547.7360, -71.871
1547.7400, -72.575
1547.7440, -72.808
1547.7480, -73.547
1547.7520, -72.208
1547.7560, -73.047
1547.7600, -73.077
1547.7640, -71.366
1547.7680, -72.045
1547.7720, -71.999
1547.7760, -73.076
1547.7800, -73.334
1547.7840, -72.055
1547.7880, -72.293
1547.7920, -72.276
1547.7960, -71.573
1547.8000, -71.617
1547.8040, -72.033
1547.8080, -71.699
1547.8120, -73.551
1547.8160, -74.795
1547.8200, -71.386
1547.8240, -73.178
1547.8280, -71.976
1547.8320, -73.031
1547.8360, -72.533
1547.8400, -72.813
1547.8440, -72.238
1547.8480, -71.956
1547.8520, -75.345
1547.8560, -73.693
1547.8600, -72.893
1547.8640, -73.222
1547.8680, -72.444
1547.8720, -73.302
1547.8760, -73.851
1547.8800, -72.890
1547.8840, -73.332
1547.8880, -72.008
1547.8920, -74.019
1547.8960, -72.620
1547.9000, -72.815
1547.9040, -72.172
1547.9080, -72.519
1547.9120, -71.972
1547.9160, -72.130
1547.9200, -72.713
1547.9240, -72.438
1547.9280, -72.880
1547.9320, -73.019
1547.9360, -73.875
1547.9400, -73.018
1547.9440, -73.667
1547.9480, -74.200
1547.9520, -71.796
1547.9560, -73.566
1547.9600, -73.231
1547.9640, -74.210
1547.9680, -73.134
1547.9720, -74.706
1547.9760, -73.046
1547.9800, -72.590
1547.9840, -71.497
1547.9880, -72.129
1547.9920, -71.771
1547.9960, -71.564
1548.0000, -73.719
1548.0040, -73.455
1548.0080, -72.939
1548.0120, -72.557
1548.0160, -74.179
1548.0200, -73.408
1548.0240, -72.767
1548.0280, -73.775
1548.0320, -72.074
1548.0360, -71.600
1548.0400, -72.510
1548.0440, -73.029
1548.0480, -72.762
1548.0520, -72.716
1548.0560, -71.985
1548.0600, -72.822
1548.0640, -73.593
1548.0680, -71.863
1548.0720, -72.853
1548.0760, -72.569
1548.0800, -72.393
1548.0840, -72.108
1548.0880, -72.179
1548.0920, -72.295
1548.0960, -73.579
1548.1000, -72.720
1548.1040, -71.780
1548.1080, -71.951
1548.1120, -72.952
1548.1160, -73.024
1548.1200, -71.417
1548.1240, -72.612
1548.1280, -72.713
1548.1320, -72.188
1548.1360, -71.912
1548.1400, -72.645
1548.1440, -71.445
1548.1480, -71.644
1548.1520, -72.549
1548.1560, -72.100
1548.1600, -72.295
1548.1640, -73.689
1548.1680, -72.853
1548.1720, -72.534
1548.1760, -71.404
1548.1800, -71.246
1548.1840, -71.376
1548.1880, -72.142
1548.1920, -72.160
1548.1960, -72.834
1548.2000, -72.082
1548.2040, -72.577
1548.2080, -71.968
1548.2120, -71.891
1548.2160, -71.028
1548.2200, -71.235
1548.2240, -73.213
1548.2280, -71.768
1548.2320, -72.094
1548.2360, -72.483
1548.2400, -71.402
1548.2440, -72.092
1548.2480, -71.671
1548.2520, -71.359
1548.2560, -72.026
1548.2600, -72.016
1548.2640, -70.844
1548.2680, -72.298
1548.2720, -72.584
1548.2760, -71.707
1548.2800, -72.137
1548.2840, -71.475
1548.2880, -72.689
1548.2920, -73.008
1548.2960, -73.174
1548.3000, -72.448
1548.3040, -71.780
1548.3080, -72.210
1548.3120, -71.761
1548.3160, -72.693
1548.3200, -72.768
1548.3240, -72.591
1548.3280, -72.226
1548.3320, -71.843
1548.3360, -71.103
1548.3400, -71.580
1548.3440, -72.353
1548.3480, -71.709
1548.3520, -71.022
1548.3560, -70.841
1548.3600, -71.970
1548.3640, -71.505
1548.3680, -71.425
1548.3720, -71.383
1548.3760, -72.096
1548.3800, -73.192
1548.3840, -71.572
1548.3880, -72.569
1548.3920, -71.457
1548.3960, -72.861
1548.4000, -72.867
1548.4040, -72.910
1548.4080, -72.591
1548.4120, -72.070
1548.4160, -72.072
1548.4200, -71.524
1548.4240, -72.473
1548.4280, -71.673
1548.4320, -71.881
1548.4360, -72.649
1548.4400, -72.386
1548.4440, -72.063
1548.4480, -72.634
1548.4520, -72.398
1548.4560, -72.465
1548.4600, -72.245
1548.4640, -72.114
1548.4680, -71.688
1548.4720, -73.206
1548.4760, -72.731
1548.4800, -71.356
1548.4840, -71.910
1548.4880, -71.252
1548.4920, -72.512
1548.4960, -71.571
1548.5000, -72.231
1548.5040, -72.366
1548.5080, -70.925
1548.5120, -72.452
1548.5160, -70.822
1548.5200, -72.233
1548.5240, -71.915
1548.5280, -71.418
1548.5320, -71.610
1548.5360, -72.818
1548.5400, -72.154
1548.5440, -73.176
1548.5480, -71.028
1548.5520, -72.257
1548.5560, -71.761
1548.5600, -71.935
1548.5640, -71.634
1548.5680, -72.952
1548.5720, -71.696
1548.5760, -72.967
1548.5800, -71.014
1548.5840, -71.451
1548.5880, -72.969
1548.5920, -72.444
1548.5960, -71.687
1548.6000, -71.915
1548.6040, -71.534
1548.6080, -71.647
1548.6120, -73.048
1548.6160, -71.947
1548.6200, -73.153
1548.6240, -72.367
1548.6280, -72.027
1548.6320, -72.097
1548.6360, -71.966
1548.6400, -72.044
1548.6440, -72.355
1548.6480, -72.895
1548.6520, -72.455
1548.6560, -71.649
1548.6600, -71.514
1548.6640, -71.882
1548.6680, -71.802
1548.6720, -72.058
1548.6760, -71.772
1548.6800, -71.181
1548.6840, -71.554
1548.6880, -71.624
1548.6920, -72.440
1548.6960, -71.821
1548.7000, -71.300
1548.7040, -72.057
1548.7080, -71.391
1548.7120, -70.651
1548.7160, -71.709
1548.7200, -72.121
1548.7240, -71.456
1548.7280, -71.867
1548.7320, -72.044
1548.7360, -71.486
1548.7400, -71.734
1548.7440, -71.516
1548.7480, -71.949
1548.7520, -71.993
1548.7560, -71.169
1548.7600, -71.213
1548.7640, -72.134
1548.7680, -72.742
1548.7720, -72.755
1548.7760, -71.694
1548.7800, -72.683
1548.7840, -71.585
1548.7880, -72.412
1548.7920, -72.053
1548.7960, -71.928
1548.8000, -71.962
1548.8040, -72.059
1548.8080, -71.444
1548.8120, -71.741
1548.8160, -71.524
1548.8200, -71.939
1548.8240, -71.614
1548.8280, -71.439
1548.8320, -72.400
1548.8360, -72.364
1548.8400, -71.729
1548.8440, -71.712
1548.8480, -72.201
1548.8520, -71.342
1548.8560, -73.104
1548.8600, -72.301
1548.8640, -72.536
1548.8680, -71.325
1548.8720, -71.021
1548.8760, -72.543
1548.8800, -73.201
1548.8840, -71.794
1548.8880, -71.429
1548.8920, -71.243
1548.8960, -70.754
1548.9000, -71.268
1548.9040, -70.789
1548.9080, -70.945
1548.9120, -71.255
1548.9160, -70.947
1548.9200, -72.450
1548.9240, -71.863
1548.9280, -71.793
1548.9320, -71.365
1548.9360, -72.641
1548.9400, -71.989
1548.9440, -71.335
1548.9480, -71.318
1548.9520, -70.565
1548.9560, -71.278
1548.9600, -71.456
1548.9640, -72.527
1548.9680, -71.411
1548.9720, -71.842
1548.9760, -71.123
1548.9800, -72.488
1548.9840, -71.617
1548.9880, -71.753
1548.9920, -73.535
1548.9960, -73.571
1549.0000, -72.875
1549.0040, -71.073
1549.0080, -72.868
1549.0120, -73.076
1549.0160, -72.946
1549.0200, -71.271
1549.0240, -72.552
1549.0280, -71.299
1549.0320, -72.570
1549.0360, -71.978
1549.0400, -73.438
1549.0440, -72.594
1549.0480, -71.651
1549.0520, -72.658
1549.0560, -73.201
1549.0600, -72.996
1549.0640, -72.833
1549.0680, -73.605
1549.0720, -72.435
1549.0760, -76.017
1549.0800, -72.846
1549.0840, -73.202
1549.0880, -74.468
1549.0920, -74.267
1549.0960, -74.088
1549.1000, -73.647
1549.1040, -76.398
1549.1080, -75.258
1549.1120, -74.617
1549.1160, -74.661
1549.1200, -74.798
1549.1240, -75.331
1549.1280, -75.105
1549.1320, -76.134
1549.1360, -77.088
1549.1400, -77.457
1549.1440, -75.282
1549.1480, -74.764
1549.1520, -73.802
1549.1560, -76.518
1549.1600, -74.450
1549.1640, -76.827
1549.1680, -74.835
1549.1720, -78.086
1549.1760, -77.614
1549.1800, -77.235
1549.1840, -74.942
1549.1880, -77.517
1549.1920, -74.615
1549.1960, -75.164
1549.2000, -73.035
1549.2040, -74.283
1549.2080, -79.844
1549.2120, -74.631
1549.2160, -74.425
1549.2200, -73.792
1549.2240, -73.731
1549.2280, -73.749
1549.2320, -75.332
1549.2360, -75.298
1549.2400, -73.253
1549.2440, -73.157
1549.2480, -77.330
1549.2520, -74.512
1549.2560, -71.914
1549.2600, -71.123
1549.2640, -72.351
1549.2680, -72.370
1549.2720, -71.441
1549.2760, -71.018
1549.2800, -70.812
1549.2840, -69.960
1549.2880, -69.323
1549.2920, -68.262
1549.2960, -67.833
1549.3000, -67.188
1549.3040, -66.347
1549.3080, -65.861
1549.3120, -65.104
1549.3160, -64.003
1549.3200, -63.291
1549.3240, -62.770
1549.3280, -61.831
1549.3320, -60.775
1549.3360, -59.585
1549.3400, -57.928
1549.3440, -56.510
1549.3480, -54.678
1549.3520, -50.908
1549.3560, -47.127
1549.3600, -44.701
1549.3640, -42.808
1549.3680, -41.094
1549.3720, -39.052
1549.3760, -37.378
1549.3800, -35.779
1549.3840, -34.163
1549.3880, -32.816
1549.3920, -31.685
1549.3960, -30.520
1549.4000, -29.531
1549.4040, -28.703
1549.4080, -27.155
1549.4120, -25.449
1549.4160, -24.272
1549.4200, -21.993
1549.4240, -18.729
1549.4280, -14.630
1549.4320, -12.614
1549.4360, -11.544
1549.4400, -10.812
1549.4440, -10.055
1549.4480,  -9.169
1549.4520,  -8.377
1549.4560,  -7.577
1549.4600,  -7.128
1549.4640,  -7.289
1549.4680,  -8.053
1549.4720,  -9.136
1549.4760, -11.135
1549.4800, -14.161
1549.4840, -17.261
1549.4880, -20.204
1549.4920, -23.455
1549.4960, -25.640
1549.5000, -27.160
1549.5040, -28.151
1549.5080, -28.860
1549.5120, -29.585
1549.5160, -30.386
1549.5200, -31.522
1549.5240, -32.369
1549.5280, -33.261
1549.5320, -34.503
1549.5360, -36.157
1549.5400, -38.060
1549.5440, -40.608
1549.5480, -42.632
1549.5520, -45.464
1549.5560, -48.334
1549.5600, -50.878
1549.5640, -52.379
1549.5680, -53.584
1549.5720, -54.448
1549.5760, -55.485
1549.5800, -56.382
1549.5840, -56.866
1549.5880, -57.488
1549.5920, -58.344
1549.5960, -58.988
1549.6000, -59.325
1549.6040, -59.837
1549.6080, -60.375
1549.6120, -60.892
1549.6160, -61.393
1549.6200, -61.743
1549.6240, -62.195
1549.6280, -62.507
1549.6320, -62.771
1549.6360, -63.074
1549.6400, -63.124
1549.6440, -63.458
1549.6480, -63.708
1549.6520, -64.028
1549.6560, -64.268
1549.6600, -64.639
1549.6640, -65.047
1549.6680, -64.940
1549.6720, -65.193
1549.6760, -65.480
1549.6800, -65.647
1549.6840, -65.824
1549.6880, -65.945
1549.6920, -66.314
1549.6960, -66.713
1549.7000, -67.099
1549.7040, -66.652
1549.7080, -67.167
1549.7120, -66.969
1549.7160, -67.220
1549.7200, -67.088
1549.7240, -67.455
1549.7280, -67.450
1549.7320, -67.427
1549.7360, -67.522
1549.7400, -67.762
1549.7440, -67.737
1549.7480, -67.401
1549.7520, -67.553
1549.7560, -67.465
1549.7600, -67.671
1549.7640, -67.680
1549.7680, -68.078
1549.7720, -67.700
1549.7760, -68.277
1549.7800, -67.794
1549.7840, -67.662
1549.7880, -68.634
1549.7920, -68.334
1549.7960, -68.218
1549.8000, -68.887
1549.8040, -68.654
1549.8080, -68.746
1549.8120, -68.197
1549.8160, -68.422
1549.8200, -68.607
1549.8240, -68.617
1549.8280, -68.310
1549.8320, -68.892
1549.8360, -69.059
1549.8400, -68.912
1549.8440, -69.284
1549.8480, -68.831
1549.8520, -69.204
1549.8560, -68.692
1549.8600, -69.237
1549.8640, -69.565
1549.8680, -69.497
1549.8720, -69.911
1549.8760, -69.004
1549.8800, -69.445
1549.8840, -69.512
1549.8880, -69.741
1549.8920, -69.749
1549.8960, -70.609
1549.9000, -70.603
1549.9040, -70.895
1549.9080, -70.324
1549.9120, -70.166
1549.9160, -69.801
1549.9200, -71.145
1549.9240, -70.554
1549.9280, -69.598
1549.9320, -70.465
1549.9360, -70.097
1549.9400, -70.720
1549.9440, -70.528
1549.9480, -70.639
1549.9520, -70.767
1549.9560, -70.702
1549.9600, -71.124
1549.9640, -70.763
1549.9680, -70.253
1549.9720, -70.950
1549.9760, -70.496
1549.9800, -70.998
1549.9840, -70.336
1549.9880, -70.160
1549.9920, -71.139
1549.9960, -70.488
1550.0000, -70.705
1550.0040, -70.717
1550.0080, -71.850
1550.0120, -70.816
1550.0160, -70.676
1550.0200, -71.499
1550.0240, -71.306
1550.0280, -70.790
1550.0320, -71.454
1550.0360, -70.314
1550.0400, -71.596
1550.0440, -71.053
1550.0480, -72.333
1550.0520, -71.591
1550.0560, -71.045
1550.0600, -71.058
1550.0640, -72.557
1550.0680, -71.443
1550.0720, -71.866
1550.0760, -71.645
1550.0800, -71.855
1550.0840, -71.539
1550.0880, -72.190
1550.0920, -71.349
1550.0960, -72.389
1550.1000, -71.671
1550.1040, -71.416
1550.1080, -70.872
1550.1120, -71.520
1550.1160, -71.488
1550.1200, -70.744
1550.1240, -71.495
1550.1280, -71.445
1550.1320, -71.949
1550.1360, -71.645
1550.1400, -71.228
1550.1440, -71.540
1550.1480, -72.280
1550.1520, -72.256
1550.1560, -72.161
1550.1600, -71.032
1550.1640, -70.939
1550.1680, -72.004
1550.1720, -71.417
1550.1760, -72.210
1550.1800, -71.954
1550.1840, -71.489
1550.1880, -72.334
1550.1920, -72.135
1550.1960, -71.483
1550.2000, -71.821
1550.2040, -73.061
1550.2080, -71.785
1550.2120, -71.750
1550.2160, -71.159
1550.2200, -70.810
1550.2240, -71.149
1550.2280, -71.215
1550.2320, -72.339
1550.2360, -72.041
1550.2400, -73.140
1550.2440, -71.150
1550.2480, -72.639
1550.2520, -71.829
1550.2560, -71.984
1550.2600, -71.221
1550.2640, -71.147
1550.2680, -72.683
1550.2720, -71.158
1550.2760, -71.631
1550.2800, -71.573
1550.2840, -72.258
1550.2880, -70.480
1550.2920, -70.639
1550.2960, -71.105
1550.3000, -71.502
1550.3040, -71.528
1550.3080, -71.709
1550.3120, -71.738
1550.3160, -72.067
1550.3200, -71.883
1550.3240, -72.447
1550.3280, -72.690
1550.3320, -72.871
1550.3360, -71.665
1550.3400, -72.158
1550.3440, -71.550
1550.3480, -72.472
1550.3520, -72.441
1550.3560, -72.278
1550.3600, -71.856
1550.3640, -71.289
1550.3680, -71.670
1550.3720, -71.751
1550.3760, -72.178
1550.3800, -71.332
1550.3840, -71.852
1550.3880, -70.988
1550.3920, -71.057
1550.3960, -71.912
1550.4000, -71.969
1550.4040, -71.833
1550.4080, -73.223
1550.4120, -72.179
1550.4160, -70.999
1550.4200, -71.859
1550.4240, -72.665
1550.4280, -72.462
1550.4320, -72.505
1550.4360, -72.260
1550.4400, -71.310
1550.4440, -70.905
1550.4480, -71.758
1550.4520, -71.922
1550.4560, -71.134
1550.4600, -72.490
1550.4640, -72.692
1550.4680, -72.579
1550.4720, -72.900
1550.4760, -73.695
1550.4800, -71.723
1550.4840, -72.156
1550.4880, -72.433
1550.4920, -72.023
1550.4960, -72.572
1550.5000, -71.606
1550.5040, -72.245
1550.5080, -72.274
1550.5120, -71.066
1550.5160, -72.141
1550.5200, -71.633
1550.5240, -71.400
1550.5280, -72.839
1550.5320, -70.973
1550.5360, -71.126
1550.5400, -73.103
1550.5440, -72.125
1550.5480, -72.025
1550.5520, -72.203
1550.5560, -72.380
1550.5600, -70.437
1550.5640, -71.851
1550.5680, -72.094
1550.5720, -70.978
1550.5760, -72.687
1550.5800, -72.369
1550.5840, -72.263
1550.5880, -72.324
1550.5920, -71.847
1550.5960, -72.366
1550.6000, -71.849
1550.6040, -72.410
1550.6080, -73.219
1550.6120, -71.506
1550.6160, -72.828
1550.6200, -73.762
1550.6240, -72.289
1550.6280, -72.905
1550.6320, -72.779
1550.6360, -72.982
1550.6400, -72.095
1550.6440, -71.413
1550.6480, -72.520
1550.6520, -71.282
1550.6560, -71.119
1550.6600, -71.802
1550.6640, -72.972
1550.6680, -72.197
1550.6720, -73.076
1550.6760, -72.080
1550.6800, -72.362
1550.6840, -72.169
1550.6880, -71.064
1550.6920, -72.526
1550.6960, -73.100
1550.7000, -72.229
1550.7040, -71.716
1550.7080, -71.460
1550.7120, -71.539
1550.7160, -71.977
1550.7200, -72.462
1550.7240, -71.173
1550.7280, -72.040
1550.7320, -71.723
1550.7360, -72.701
1550.7400, -71.676
1550.7440, -71.656
1550.7480, -72.144
1550.7520, -73.965
1550.7560, -71.810
1550.7600, -71.205
1550.7640, -71.803
1550.7680, -72.649
1550.7720, -71.014
1550.7760, -71.739
1550.7800, -72.038
1550.7840, -70.715
1550.7880, -71.600
1550.7920, -72.395
1550.7960, -71.019
1550.8000, -71.758
1550.8040, -71.288
1550.8080, -71.635
1550.8120, -72.165
1550.8160, -72.643
1550.8200, -72.284
1550.8240, -71.637
1550.8280, -72.520
1550.8320, -71.748
1550.8360, -70.852
1550.8400, -71.360
1550.8440, -72.800
1550.8480, -71.516
1550.8520, -71.854
1550.8560, -71.657
1550.8600, -71.668
1550.8640, -70.822
1550.8680, -72.222
1550.8720, -71.752
1550.8760, -70.951
1550.8800, -73.513
1550.8840, -72.559
1550.8880, -71.370
1550.8920, -71.731
1550.8960, -71.759
1550.9000, -71.829
1550.9040, -71.595
1550.9080, -72.136
1550.9120, -72.046
1550.9160, -72.371
1550.9200, -71.647
1550.9240, -72.536
1550.9280, -72.251
1550.9320, -70.609
1550.9360, -72.210
1550.9400, -72.346
1550.9440, -71.816
1550.9480, -72.336
1550.9520, -72.371
1550.9560, -73.440
1550.9600, -72.848
1550.9640, -72.869
1550.9680, -72.127
1550.9720, -71.111
1550.9760, -71.238
1550.9800, -71.535
1550.9840, -71.221
1550.9880, -72.067
1550.9920, -72.713
1550.9960, -72.191
1551.0000, -72.648
1551.0040, -72.193
1551.0080, -71.411
1551.0120, -71.436
1551.0160, -71.757
1551.0200, -72.377
1551.0240, -71.470
1551.0280, -71.898
1551.0320, -71.735
1551.0360, -72.371
1551.0400, -72.751
1551.0440, -71.713
1551.0480, -72.522
1551.0520, -72.199
1551.0560, -71.793
1551.0600, -71.684
1551.0640, -71.886
1551.0680, -71.097
1551.0720, -70.324
1551.0760, -71.570
1551.0800, -72.147
1551.0840, -71.888
1551.0880, -72.098
1551.0920, -72.350
1551.0960, -71.029
1551.1000, -72.307
1551.1040, -71.906
1551.1080, -73.005
1551.1120, -72.451
1551.1160, -71.348
1551.1200, -71.487
1551.1240, -71.938
1551.1280, -73.408
1551.1320, -71.835
1551.1360, -72.794
1551.1400, -71.654
1551.1440, -71.576
1551.1480, -71.439
1551.1520, -71.288
1551.1560, -72.289
1551.1600, -72.725
1551.1640, -72.553
1551.1680, -71.251
1551.1720, -70.872
1551.1760, -71.345
1551.1800, -71.000
1551.1840, -71.546
1551.1880, -70.889
1551.1920, -72.093
1551.1960, -71.320
1551.2000, -71.109
1551.2040, -73.034
1551.2080, -71.309
1551.2120, -71.670
1551.2160, -71.712
1551.2200, -72.126
1551.2240, -72.609
1551.2280, -72.491
1551.2320, -72.254
1551.2360, -71.247
1551.2400, -73.414
1551.2440, -72.056
1551.2480, -71.780
1551.2520, -71.364
1551.2560, -71.668
1551.2600, -71.209
1551.2640, -72.283
1551.2680, -73.615
1551.2720, -72.236
1551.2760, -71.159
1551.2800, -71.946
1551.2840, -72.655
1551.2880, -72.555
1551.2920, -71.692
1551.2960, -71.470
1551.3000, -71.645
1551.3040, -72.235
1551.3080, -72.265
1551.3120, -71.342
1551.3160, -70.326
1551.3200, -72.102
1551.3240, -72.199
1551.3280, -72.437
1551.3320, -72.170
1551.3360, -71.997
1551.3400, -72.021
1551.3440, -73.657
1551.3480, -71.665
1551.3520, -72.228
1551.3560, -71.429
1551.3600, -71.235
1551.3640, -71.858
1551.3680, -73.028
1551.3720, -71.946
1551.3760, -71.903
1551.3800, -71.612
1551.3840, -71.144
1551.3880, -71.836
1551.3920, -72.147
1551.3960, -72.219
1551.4000, -72.085
1551.4040, -71.852
1551.4080, -71.627
1551.4120, -71.096
1551.4160, -71.949
1551.4200, -71.842
1551.4240, -72.166
1551.4280, -71.704
1551.4320, -71.083
1551.4360, -71.203
1551.4400, -71.163
1551.4440, -72.307
1551.4480, -73.264
1551.4520, -71.830
1551.4560, -72.275
1551.4600, -71.878
1551.4640, -72.002
1551.4680, -71.845
1551.4720, -71.117
1551.4760, -72.929
1551.4800, -71.864
1551.4840, -71.191
1551.4880, -71.233
1551.4920, -72.641
1551.4960, -71.045
1551.5000, -73.512
1551.5040, -72.520
1551.5080, -71.419
1551.5120, -71.769
1551.5160, -72.046
1551.5200, -71.516
1551.5240, -71.438
1551.5280, -71.526
1551.5320, -70.718
1551.5360, -72.114
1551.5400, -72.667
1551.5440, -70.428
1551.5480, -71.181
1551.5520, -72.214
1551.5560, -71.975
1551.5600, -71.590
1551.5640, -72.413
1551.5680, -72.639
1551.5720, -72.335
1551.5760, -72.134
1551.5800, -70.721
1551.5840, -70.940
1551.5880, -73.077
1551.5920, -71.794
1551.5960, -70.690
1551.6000, -71.769
1551.6040, -70.437
1551.6080, -71.315
1551.6120, -71.957
1551.6160, -70.798
1551.6200, -72.524
1551.6240, -71.509
1551.6280, -71.360
1551.6320, -71.774
1551.6360, -71.219
1551.6400, -71.243
1551.6440, -71.182
1551.6480, -72.248
1551.6520, -72.691
1551.6560, -72.606
1551.6600, -71.449
1551.6640, -71.842
1551.6680, -70.792
1551.6720, -71.874
1551.6760, -71.854
1551.6800, -70.927
1551.6840, -71.786
1551.6880, -71.367
1551.6920, -71.830
1551.6960, -72.327
1551.7000, -71.273
1551.7040, -72.458
1551.7080, -74.017
1551.7120, -72.399
1551.7160, -72.057
1551.7200, -71.625
1551.7240, -72.559
1551.7280, -72.021
1551.7320, -71.934
1551.7360, -72.205
1551.7400, -71.113
1551.7440, -71.386
1551.7480, -71.192
1551.7520, -70.885
1551.7560, -71.469
1551.7600, -70.889
1551.7640, -71.620
1551.7680, -72.321
1551.7720, -72.924
1551.7760, -72.005
1551.7800, -72.222
1551.7840, -70.794
1551.7880, -70.778
1551.7920, -71.918
1551.7960, -71.073
1551.8000, -72.763
1551.8040, -71.865
1551.8080, -71.439
1551.8120, -71.681
1551.8160, -71.759
1551.8200, -71.457
1551.8240, -72.879
1551.8280, -71.911
1551.8320, -71.686
1551.8360, -71.576
1551.8400, -72.645
1551.8440, -71.373
1551.8480, -71.601
1551.8520, -72.336
1551.8560, -72.552
1551.8600, -71.204
1551.8640, -70.828
1551.8680, -71.289
1551.8720, -71.840
1551.8760, -71.535
1551.8800, -71.093
1551.8840, -71.557
1551.8880, -72.114
1551.8920, -71.612
1551.8960, -71.478
1551.9000, -71.628
1551.9040, -71.583
1551.9080, -72.240
1551.9120, -70.893
1551.9160, -71.658
1551.9200, -72.304
1551.9240, -71.909
1551.9280, -70.649
1551.9320, -70.966
1551.9360, -72.090
1551.9400, -71.347
1551.9440, -71.312
1551.9480, -72.284
1551.9520, -72.918
1551.9560, -71.902
1551.9600, -72.974
1551.9640, -72.200
1551.9680, -71.514
1551.9720, -71.178
1551.9760, -73.748
1551.9800, -71.813
1551.9840, -72.102
1551.9880, -71.054
1551.9920, -72.361
1551.9960, -70.906
1552.0000, -71.936
1552.0040, -70.462
1552.0080, -71.615
1552.0120, -71.662
1552.0160, -71.268
1552.0200, -72.478
1552.0240, -72.749
1552.0280, -71.973
1552.0320, -71.424
1552.0360, -71.212
1552.0400, -71.624
1552.0440, -71.141
1552.0480, -70.928
1552.0520, -71.059
1552.0560, -70.766
1552.0600, -72.123
1552.0640, -70.901
1552.0680, -70.811
1552.0720, -70.772
1552.0760, -72.161
1552.0800, -74.323
1552.0840, -71.304
1552.0880, -72.448
1552.0920, -71.354
1552.0960, -71.982
1552.1000, -72.035
1552.1040, -71.781
1552.1080, -70.723
1552.1120, -71.691
1552.1160, -71.461
1552.1200, -71.672
1552.1240, -71.415
1552.1280, -71.439
1552.1320, -70.972
1552.1360, -72.164
1552.1400, -70.723
1552.1440, -71.169
1552.1480, -72.153
1552.1520, -71.644
1552.1560, -71.536
1552.1600, -72.575
1552.1640, -72.286
1552.1680, -71.863
1552.1720, -72.173
1552.1760, -72.300
1552.1800, -71.430
1552.1840, -72.548
1552.1880, -71.159
1552.1920, -72.674
1552.1960, -71.453
1552.2000, -71.641
1552.2040, -70.737
1552.2080, -71.628
1552.2120, -71.869
1552.2160, -72.965
1552.2200, -72.469
1552.2240, -71.732
1552.2280, -71.736
1552.2320, -71.068
1552.2360, -71.201
1552.2400, -72.982
1552.2440, -71.834
1552.2480, -71.610
1552.2520, -71.751
1552.2560, -75.288
1552.2600, -74.078
1552.2640, -71.296
1552.2680, -71.139
1552.2720, -72.792
1552.2760, -72.785
1552.2800, -71.427
1552.2840, -70.931
1552.2880, -71.363
1552.2920, -72.594
1552.2960, -71.476
1552.3000, -70.841
1552.3040, -72.172
1552.3080, -70.823
1552.3120, -71.896
1552.3160, -72.567
1552.3200, -71.574
1552.3240, -72.657
1552.3280, -72.985
1552.3320, -70.416
1552.3360, -71.717
1552.3400, -72.001
1552.3440, -71.940
1552.3480, -72.090
1552.3520, -71.938
1552.3560, -71.227
1552.3600, -71.056
1552.3640, -71.750
1552.3680, -72.093
1552.3720, -71.377
1552.3760, -71.681
1552.3800, -72.229
1552.3840, -71.423
1552.3880, -72.347
1552.3920, -71.575
1552.3960, -71.137
1552.4000, -71.711
1552.4040, -71.394
1552.4080, -71.527
1552.4120, -70.952
1552.4160, -71.817
1552.4200, -71.111
1552.4240, -71.211
1552.4280, -71.645
1552.4320, -71.204
1552.4360, -72.351
1552.4400, -71.931
1552.4440, -71.950
1552.4480, -71.534
1552.4520, -73.579
1552.4560, -71.959
1552.4600, -73.142
1552.4640, -72.892
1552.4680, -72.352
1552.4720, -72.554
1552.4760, -71.720
1552.4800, -71.361
1552.4840, -72.704
1552.4880, -73.174
1552.4920, -70.726
1552.4960, -71.599
1552.5000, -70.946
1552.5040, -72.221
1552.5080, -72.417
1552.5120, -71.158
1552.5160, -71.058
1552.5200, -71.457
1552.5240, -71.606
1552.5280, -71.968
1552.5320, -71.133
1552.5360, -72.071
1552.5400, -72.465
1552.5440, -71.529
1552.5480, -70.480
1552.5520, -71.380
1552.5560, -71.646
1552.5600, -71.786
1552.5640, -71.490
1552.5680, -71.561
1552.5720, -71.605
1552.5760, -72.365
1552.5800, -71.593
1552.5840, -70.844
1552.5880, -73.136
1552.5920, -72.458
1552.5960, -71.213
1552.6000, -71.074
1552.6040, -72.139
1552.6080, -72.343
1552.6120, -71.575
1552.6160, -72.155
1552.6200, -71.620
1552.6240, -71.265
1552.6280, -73.497
1552.6320, -71.167
1552.6360, -71.493
1552.6400, -71.507
1552.6440, -72.406
1552.6480, -72.544
1552.6520, -71.681
1552.6560, -72.885
1552.6600, -72.779
1552.6640, -72.926
1552.6680, -71.748
1552.6720, -71.580
1552.6760, -71.884
1552.6800, -71.904
1552.6840, -71.608
1552.6880, -71.243
1552.6920, -72.084
1552.6960, -72.002
1552.7000, -70.695
1552.7040, -72.005
1552.7080, -72.237
1552.7120, -71.487
1552.7160, -73.055
1552.7200, -71.225
1552.7240, -72.235
1552.7280, -71.824
1552.7320, -72.963
1552.7360, -72.099
1552.7400, -71.983
1552.7440, -71.226
1552.7480, -71.348
1552.7520, -71.235
1552.7560, -71.556
1552.7600, -71.544
1552.7640, -71.507
1552.7680, -71.264
1552.7720, -72.312
1552.7760, -72.111
1552.7800, -71.411
1552.7840, -72.391
1552.7880, -71.501
1552.7920, -71.683
1552.7960, -71.913
1552.8000, -72.112
1552.8040, -72.044
1552.8080, -71.442
1552.8120, -71.992
1552.8160, -71.567
1552.8200, -71.201
1552.8240, -71.720
1552.8280, -72.196
1552.8320, -74.556
1552.8360, -71.791
1552.8400, -72.917
1552.8440, -71.806
1552.8480, -70.736
1552.8520, -71.684
1552.8560, -73.651
1552.8600, -71.957
1552.8640, -71.132
1552.8680, -71.396
1552.8720, -71.939
1552.8760, -72.095
1552.8800, -71.174
1552.8840, -74.227
1552.8880, -73.367
1552.8920, -71.782
1552.8960, -70.851
1552.9000, -72.028
1552.9040, -72.339
1552.9080, -71.936
1552.9120, -71.526
1552.9160, -71.321
1552.9200, -72.079
1552.9240, -71.123
1552.9280, -71.840
1552.9320, -71.525
1552.9360, -71.731
1552.9400, -71.700
1552.9440, -71.996
1552.9480, -72.043
1552.9520, -71.436
1552.9560, -71.932
1552.9600, -72.373
1552.9640, -71.226
1552.9680, -72.088
1552.9720, -72.089
1552.9760, -71.027
1552.9800, -71.919
1552.9840, -73.261
1552.9880, -71.713
1552.9920, -72.203
1552.9960, -72.199
1553.0000, -71.672
1553.0040, -71.617
1553.0080, -71.508
1553.0120, -72.494
1553.0160, -72.129
1553.0200, -70.957
1553.0240, -70.797
1553.0280, -71.282
1553.0320, -71.661
1553.0360, -72.382
1553.0400, -72.062
1553.0440, -72.289
1553.0480, -72.398
1553.0520, -71.446
1553.0560, -70.163
1553.0600, -71.489
1553.0640, -71.399
1553.0680, -71.316
1553.0720, -72.229
1553.0760, -70.801
1553.0800, -71.140
1553.0840, -72.350
1553.0880, -71.415
1553.0920, -71.533
1553.0960, -72.694
1553.1000, -71.898
1553.1040, -71.891
1553.1080, -71.314
1553.1120, -72.480
1553.1160, -71.860
1553.1200, -72.178
1553.1240, -72.771
1553.1280, -72.044
1553.1320, -72.409
1553.1360, -71.716
1553.1400, -71.323
1553.1440, -70.996
1553.1480, -70.936
1553.1520, -71.954
1553.1560, -71.421
1553.1600, -70.877
1553.1640, -71.883
1553.1680, -71.818
1553.1720, -71.310
1553.1760, -71.360
1553.1800, -71.270
1553.1840, -72.011
1553.1880, -70.908
1553.1920, -70.558
1553.1960, -72.495
1553.2000, -71.911
1553.2040, -72.496
1553.2080, -72.388
1553.2120, -72.114
1553.2160, -72.063
1553.2200, -71.071
1553.2240, -71.598
1553.2280, -71.108
1553.2320, -72.242
1553.2360, -71.943
1553.2400, -71.858
1553.2440, -71.927
1553.2480, -70.820
1553.2520, -70.629
1553.2560, -71.255
1553.2600, -71.343
1553.2640, -70.828
1553.2680, -71.670
1553.2720, -71.926
1553.2760, -72.346
1553.2800, -74.077
1553.2840, -72.012
1553.2880, -73.699
1553.2920, -71.509
1553.2960, -71.736
1553.3000, -72.197
1553.3040, -72.901
1553.3080, -72.266
1553.3120, -72.981
1553.3160, -71.522
1553.3200, -71.684
1553.3240, -72.364
1553.3280, -70.686
1553.3320, -72.025
1553.3360, -72.523
1553.3400, -71.245
1553.3440, -70.926
1553.3480, -72.110
1553.3520, -71.856
1553.3560, -72.475
1553.3600, -71.160
1553.3640, -71.668
1553.3680, -72.063
1553.3720, -72.587
1553.3760, -71.420
1553.3800, -72.155
1553.3840, -72.431
1553.3880, -71.757
1553.3920, -71.700
1553.3960, -71.846
1553.4000, -71.313
1553.4040, -71.416
1553.4080, -72.843
1553.4120, -70.621
1553.4160, -71.059
1553.4200, -74.198
1553.4240, -70.992
1553.4280, -73.032
1553.4320, -72.520
1553.4360, -72.023
1553.4400, -72.547
1553.4440, -72.485
1553.4480, -71.598
1553.4520, -72.179
1553.4560, -71.384
1553.4600, -72.411
1553.4640, -71.975
1553.4680, -71.547
1553.4720, -72.316
1553.4760, -72.078
1553.4800, -72.823
1553.4840, -71.649
1553.4880, -71.768
1553.4920, -70.840
1553.4960, -71.588
1553.5000, -71.531
